<?xml version="1.0" ?>
<ODM CreationDateTime="2019-09-25T12:44:27.011673" FileOID="[CDISC LIBRARY- sdtmig-3-3]" FileType="Snapshot" def:Context="Other" xmlns="http://www.cdisc.org/ns/odm/v1.3" xmlns:def="http://www.cdisc.org/ns/def/v2.1">
    <Study OID="[CDISC.Library.Example.sdtmig-3-3]">
        <GlobalVariables>
            <StudyName>sdtmig-3-3</StudyName>
            <StudyDescription>CLIB Example</StudyDescription>
            <ProtocolName>CDISC Library Listing</ProtocolName>
        </GlobalVariables>
        <MetaDataVersion Name="CDISC Library MetaData" OID="MDV01" def:DefineVersion="2.1.0" xmlns:def="http://www.cdisc.org/ns/def/v2.1">
            <def:Standards>
                <def:Standard Name="sdtmig" OID="CDISCLIB.sdtmig-3-3" Status="Final" Type="IG" Version="3-3"/>
            </def:Standards>
            <ItemGroupDef Name="DM" OID="CLIB.IG.DM" Purpose="SDTM Specification" def:StandardOID="CDISCLIB.sdtmig-3-3" def:Structure="One record per subject">
                <Description>
                    <TranslatedText>Demographics</TranslatedText>
                </Description>
                <ItemRef ItemOID="IT.DM.STUDYID" Mandatory="Y" OrderNumber="1" Role="Identifier" mdrCore="Req"/>
                <ItemRef ItemOID="IT.DM.DOMAIN" Mandatory="Y" OrderNumber="2" Role="Identifier" mdrCore="Req"/>
                <ItemRef ItemOID="IT.DM.USUBJID" Mandatory="Y" OrderNumber="3" Role="Identifier" mdrCore="Req"/>
                <ItemRef ItemOID="IT.DM.SUBJID" Mandatory="Y" OrderNumber="4" Role="Topic" mdrCore="Req"/>
                <ItemRef ItemOID="IT.DM.RFSTDTC" Mandatory="N" OrderNumber="5" Role="Record Qualifier" mdrCore="Exp"/>
                <ItemRef ItemOID="IT.DM.RFENDTC" Mandatory="N" OrderNumber="6" Role="Record Qualifier" mdrCore="Exp"/>
                <ItemRef ItemOID="IT.DM.RFXSTDTC" Mandatory="N" OrderNumber="7" Role="Record Qualifier" mdrCore="Exp"/>
                <ItemRef ItemOID="IT.DM.RFXENDTC" Mandatory="N" OrderNumber="8" Role="Record Qualifier" mdrCore="Exp"/>
                <ItemRef ItemOID="IT.DM.RFICDTC" Mandatory="N" OrderNumber="9" Role="Record Qualifier" mdrCore="Exp"/>
                <ItemRef ItemOID="IT.DM.RFPENDTC" Mandatory="N" OrderNumber="10" Role="Record Qualifier" mdrCore="Exp"/>
                <ItemRef ItemOID="IT.DM.DTHDTC" Mandatory="N" OrderNumber="11" Role="Record Qualifier" mdrCore="Exp"/>
                <ItemRef ItemOID="IT.DM.DTHFL" Mandatory="N" OrderNumber="12" Role="Record Qualifier" mdrCore="Exp"/>
                <ItemRef ItemOID="IT.DM.SITEID" Mandatory="Y" OrderNumber="13" Role="Record Qualifier" mdrCore="Req"/>
                <ItemRef ItemOID="IT.DM.INVID" Mandatory="N" OrderNumber="14" Role="Record Qualifier" mdrCore="Perm"/>
                <ItemRef ItemOID="IT.DM.INVNAM" Mandatory="N" OrderNumber="15" Role="Synonym Qualifier" mdrCore="Perm"/>
                <ItemRef ItemOID="IT.DM.BRTHDTC" Mandatory="N" OrderNumber="16" Role="Record Qualifier" mdrCore="Perm"/>
                <ItemRef ItemOID="IT.DM.AGE" Mandatory="N" OrderNumber="17" Role="Record Qualifier" mdrCore="Exp"/>
                <ItemRef ItemOID="IT.DM.AGEU" Mandatory="N" OrderNumber="18" Role="Variable Qualifier" mdrCore="Exp"/>
                <ItemRef ItemOID="IT.DM.SEX" Mandatory="Y" OrderNumber="19" Role="Record Qualifier" mdrCore="Req"/>
                <ItemRef ItemOID="IT.DM.RACE" Mandatory="N" OrderNumber="20" Role="Record Qualifier" mdrCore="Exp"/>
                <ItemRef ItemOID="IT.DM.ETHNIC" Mandatory="N" OrderNumber="21" Role="Record Qualifier" mdrCore="Perm"/>
                <ItemRef ItemOID="IT.DM.ARMCD" Mandatory="N" OrderNumber="22" Role="Record Qualifier" mdrCore="Exp"/>
                <ItemRef ItemOID="IT.DM.ARM" Mandatory="N" OrderNumber="23" Role="Synonym Qualifier" mdrCore="Exp"/>
                <ItemRef ItemOID="IT.DM.ACTARMCD" Mandatory="N" OrderNumber="24" Role="Record Qualifier" mdrCore="Exp"/>
                <ItemRef ItemOID="IT.DM.ACTARM" Mandatory="N" OrderNumber="25" Role="Synonym Qualifier" mdrCore="Exp"/>
                <ItemRef ItemOID="IT.DM.ARMNRS" Mandatory="N" OrderNumber="26" Role="Record Qualifier" mdrCore="Exp"/>
                <ItemRef ItemOID="IT.DM.ACTARMUD" Mandatory="N" OrderNumber="27" Role="Record Qualifier" mdrCore="Exp"/>
                <ItemRef ItemOID="IT.DM.COUNTRY" Mandatory="Y" OrderNumber="28" Role="Record Qualifier" mdrCore="Req"/>
                <ItemRef ItemOID="IT.DM.DMDTC" Mandatory="N" OrderNumber="29" Role="Timing" mdrCore="Perm"/>
                <ItemRef ItemOID="IT.DM.DMDY" Mandatory="N" OrderNumber="30" Role="Timing" mdrCore="Perm"/>
                <def:Class Name="Special-Purpose Datasets"/>
            </ItemGroupDef>
            <ItemGroupDef Name="DS" OID="CLIB.IG.DS" Purpose="SDTM Specification" def:StandardOID="CDISCLIB.sdtmig-3-3" def:Structure="One record per disposition status or protocol milestone per subject">
                <Description>
                    <TranslatedText>Disposition</TranslatedText>
                </Description>
                <ItemRef ItemOID="IT.DS.STUDYID" Mandatory="Y" OrderNumber="1" Role="Identifier" mdrCore="Req"/>
                <ItemRef ItemOID="IT.DS.DOMAIN" Mandatory="Y" OrderNumber="2" Role="Identifier" mdrCore="Req"/>
                <ItemRef ItemOID="IT.DS.USUBJID" Mandatory="Y" OrderNumber="3" Role="Identifier" mdrCore="Req"/>
                <ItemRef ItemOID="IT.DS.DSSEQ" Mandatory="Y" OrderNumber="4" Role="Identifier" mdrCore="Req"/>
                <ItemRef ItemOID="IT.DS.DSGRPID" Mandatory="N" OrderNumber="5" Role="Identifier" mdrCore="Perm"/>
                <ItemRef ItemOID="IT.DS.DSREFID" Mandatory="N" OrderNumber="6" Role="Identifier" mdrCore="Perm"/>
                <ItemRef ItemOID="IT.DS.DSSPID" Mandatory="N" OrderNumber="7" Role="Identifier" mdrCore="Perm"/>
                <ItemRef ItemOID="IT.DS.DSTERM" Mandatory="Y" OrderNumber="8" Role="Topic" mdrCore="Req"/>
                <ItemRef ItemOID="IT.DS.DSDECOD" Mandatory="Y" OrderNumber="9" Role="Synonym Qualifier" mdrCore="Req"/>
                <ItemRef ItemOID="IT.DS.DSCAT" Mandatory="N" OrderNumber="10" Role="Grouping Qualifier" mdrCore="Exp"/>
                <ItemRef ItemOID="IT.DS.DSSCAT" Mandatory="N" OrderNumber="11" Role="Grouping Qualifier" mdrCore="Perm"/>
                <ItemRef ItemOID="IT.DS.EPOCH" Mandatory="N" OrderNumber="12" Role="Timing" mdrCore="Perm"/>
                <ItemRef ItemOID="IT.DS.DSDTC" Mandatory="N" OrderNumber="13" Role="Timing" mdrCore="Perm"/>
                <ItemRef ItemOID="IT.DS.DSSTDTC" Mandatory="N" OrderNumber="14" Role="Timing" mdrCore="Exp"/>
                <ItemRef ItemOID="IT.DS.DSDY" Mandatory="N" OrderNumber="15" Role="Timing" mdrCore="Exp"/>
                <ItemRef ItemOID="IT.DS.DSSTDY" Mandatory="N" OrderNumber="16" Role="Timing" mdrCore="Perm"/>
                <def:Class Name="Events Observation Class"/>
            </ItemGroupDef>
            <ItemGroupDef Name="EX" OID="CLIB.IG.EX" Purpose="SDTM Specification" def:StandardOID="CDISCLIB.sdtmig-3-3" def:Structure="One record per protocol-specified study treatment, constant-dosing interval, per subject">
                <Description>
                    <TranslatedText>Exposure</TranslatedText>
                </Description>
                <ItemRef ItemOID="IT.EX.STUDYID" Mandatory="Y" OrderNumber="1" Role="Identifier" mdrCore="Req"/>
                <ItemRef ItemOID="IT.EX.DOMAIN" Mandatory="Y" OrderNumber="2" Role="Identifier" mdrCore="Req"/>
                <ItemRef ItemOID="IT.EX.USUBJID" Mandatory="Y" OrderNumber="3" Role="Identifier" mdrCore="Req"/>
                <ItemRef ItemOID="IT.EX.EXSEQ" Mandatory="Y" OrderNumber="4" Role="Identifier" mdrCore="Req"/>
                <ItemRef ItemOID="IT.EX.EXGRPID" Mandatory="N" OrderNumber="5" Role="Identifier" mdrCore="Perm"/>
                <ItemRef ItemOID="IT.EX.EXREFID" Mandatory="N" OrderNumber="6" Role="Identifier" mdrCore="Perm"/>
                <ItemRef ItemOID="IT.EX.EXSPID" Mandatory="N" OrderNumber="7" Role="Identifier" mdrCore="Perm"/>
                <ItemRef ItemOID="IT.EX.EXLNKID" Mandatory="N" OrderNumber="8" Role="Identifier" mdrCore="Perm"/>
                <ItemRef ItemOID="IT.EX.EXLNKGRP" Mandatory="N" OrderNumber="9" Role="Identifier" mdrCore="Perm"/>
                <ItemRef ItemOID="IT.EX.EXTRT" Mandatory="Y" OrderNumber="10" Role="Topic" mdrCore="Req"/>
                <ItemRef ItemOID="IT.EX.EXCAT" Mandatory="N" OrderNumber="11" Role="Grouping Qualifier" mdrCore="Perm"/>
                <ItemRef ItemOID="IT.EX.EXSCAT" Mandatory="N" OrderNumber="12" Role="Grouping Qualifier" mdrCore="Perm"/>
                <ItemRef ItemOID="IT.EX.EXDOSE" Mandatory="N" OrderNumber="13" Role="Record Qualifier" mdrCore="Exp"/>
                <ItemRef ItemOID="IT.EX.EXDOSTXT" Mandatory="N" OrderNumber="14" Role="Record Qualifier" mdrCore="Perm"/>
                <ItemRef ItemOID="IT.EX.EXDOSU" Mandatory="N" OrderNumber="15" Role="Variable Qualifier" mdrCore="Exp"/>
                <ItemRef ItemOID="IT.EX.EXDOSFRM" Mandatory="N" OrderNumber="16" Role="Variable Qualifier" mdrCore="Exp"/>
                <ItemRef ItemOID="IT.EX.EXDOSFRQ" Mandatory="N" OrderNumber="17" Role="Variable Qualifier" mdrCore="Perm"/>
                <ItemRef ItemOID="IT.EX.EXDOSRGM" Mandatory="N" OrderNumber="18" Role="Variable Qualifier" mdrCore="Perm"/>
                <ItemRef ItemOID="IT.EX.EXROUTE" Mandatory="N" OrderNumber="19" Role="Variable Qualifier" mdrCore="Perm"/>
                <ItemRef ItemOID="IT.EX.EXLOT" Mandatory="N" OrderNumber="20" Role="Record Qualifier" mdrCore="Perm"/>
                <ItemRef ItemOID="IT.EX.EXLOC" Mandatory="N" OrderNumber="21" Role="Record Qualifier" mdrCore="Perm"/>
                <ItemRef ItemOID="IT.EX.EXLAT" Mandatory="N" OrderNumber="22" Role="Variable Qualifier" mdrCore="Perm"/>
                <ItemRef ItemOID="IT.EX.EXDIR" Mandatory="N" OrderNumber="23" Role="Variable Qualifier" mdrCore="Perm"/>
                <ItemRef ItemOID="IT.EX.EXFAST" Mandatory="N" OrderNumber="24" Role="Record Qualifier" mdrCore="Perm"/>
                <ItemRef ItemOID="IT.EX.EXADJ" Mandatory="N" OrderNumber="25" Role="Record Qualifier" mdrCore="Perm"/>
                <ItemRef ItemOID="IT.EX.TAETORD" Mandatory="N" OrderNumber="26" Role="Timing" mdrCore="Perm"/>
                <ItemRef ItemOID="IT.EX.EPOCH" Mandatory="N" OrderNumber="27" Role="Timing" mdrCore="Perm"/>
                <ItemRef ItemOID="IT.EX.EXSTDTC" Mandatory="N" OrderNumber="28" Role="Timing" mdrCore="Exp"/>
                <ItemRef ItemOID="IT.EX.EXENDTC" Mandatory="N" OrderNumber="29" Role="Timing" mdrCore="Exp"/>
                <ItemRef ItemOID="IT.EX.EXSTDY" Mandatory="N" OrderNumber="30" Role="Timing" mdrCore="Perm"/>
                <ItemRef ItemOID="IT.EX.EXENDY" Mandatory="N" OrderNumber="31" Role="Timing" mdrCore="Perm"/>
                <ItemRef ItemOID="IT.EX.EXDUR" Mandatory="N" OrderNumber="32" Role="Timing" mdrCore="Perm"/>
                <ItemRef ItemOID="IT.EX.EXTPT" Mandatory="N" OrderNumber="33" Role="Timing" mdrCore="Perm"/>
                <ItemRef ItemOID="IT.EX.EXTPTNUM" Mandatory="N" OrderNumber="34" Role="Timing" mdrCore="Perm"/>
                <ItemRef ItemOID="IT.EX.EXELTM" Mandatory="N" OrderNumber="35" Role="Timing" mdrCore="Perm"/>
                <ItemRef ItemOID="IT.EX.EXTPTREF" Mandatory="N" OrderNumber="36" Role="Timing" mdrCore="Perm"/>
                <ItemRef ItemOID="IT.EX.EXRFTDTC" Mandatory="N" OrderNumber="37" Role="Timing" mdrCore="Perm"/>
                <def:Class Name="Interventions Observation Class"/>
            </ItemGroupDef>
            <ItemGroupDef Name="AE" OID="CLIB.IG.AE" Purpose="SDTM Specification" def:StandardOID="CDISCLIB.sdtmig-3-3" def:Structure="One record per adverse event per subject">
                <Description>
                    <TranslatedText>Adverse Events</TranslatedText>
                </Description>
                <ItemRef ItemOID="IT.AE.STUDYID" Mandatory="Y" OrderNumber="1" Role="Identifier" mdrCore="Req"/>
                <ItemRef ItemOID="IT.AE.DOMAIN" Mandatory="Y" OrderNumber="2" Role="Identifier" mdrCore="Req"/>
                <ItemRef ItemOID="IT.AE.USUBJID" Mandatory="Y" OrderNumber="3" Role="Identifier" mdrCore="Req"/>
                <ItemRef ItemOID="IT.AE.AESEQ" Mandatory="Y" OrderNumber="4" Role="Identifier" mdrCore="Req"/>
                <ItemRef ItemOID="IT.AE.AEGRPID" Mandatory="N" OrderNumber="5" Role="Identifier" mdrCore="Perm"/>
                <ItemRef ItemOID="IT.AE.AEREFID" Mandatory="N" OrderNumber="6" Role="Identifier" mdrCore="Perm"/>
                <ItemRef ItemOID="IT.AE.AESPID" Mandatory="N" OrderNumber="7" Role="Identifier" mdrCore="Perm"/>
                <ItemRef ItemOID="IT.AE.AETERM" Mandatory="Y" OrderNumber="8" Role="Topic" mdrCore="Req"/>
                <ItemRef ItemOID="IT.AE.AEMODIFY" Mandatory="N" OrderNumber="9" Role="Synonym Qualifier" mdrCore="Perm"/>
                <ItemRef ItemOID="IT.AE.AELLT" Mandatory="N" OrderNumber="10" Role="Variable Qualifier" mdrCore="Exp"/>
                <ItemRef ItemOID="IT.AE.AELLTCD" Mandatory="N" OrderNumber="11" Role="Variable Qualifier" mdrCore="Exp"/>
                <ItemRef ItemOID="IT.AE.AEDECOD" Mandatory="Y" OrderNumber="12" Role="Synonym Qualifier" mdrCore="Req"/>
                <ItemRef ItemOID="IT.AE.AEPTCD" Mandatory="N" OrderNumber="13" Role="Variable Qualifier" mdrCore="Exp"/>
                <ItemRef ItemOID="IT.AE.AEHLT" Mandatory="N" OrderNumber="14" Role="Variable Qualifier" mdrCore="Exp"/>
                <ItemRef ItemOID="IT.AE.AEHLTCD" Mandatory="N" OrderNumber="15" Role="Variable Qualifier" mdrCore="Exp"/>
                <ItemRef ItemOID="IT.AE.AEHLGT" Mandatory="N" OrderNumber="16" Role="Variable Qualifier" mdrCore="Exp"/>
                <ItemRef ItemOID="IT.AE.AEHLGTCD" Mandatory="N" OrderNumber="17" Role="Variable Qualifier" mdrCore="Exp"/>
                <ItemRef ItemOID="IT.AE.AECAT" Mandatory="N" OrderNumber="18" Role="Grouping Qualifier" mdrCore="Perm"/>
                <ItemRef ItemOID="IT.AE.AESCAT" Mandatory="N" OrderNumber="19" Role="Grouping Qualifier" mdrCore="Perm"/>
                <ItemRef ItemOID="IT.AE.AEPRESP" Mandatory="N" OrderNumber="20" Role="Variable Qualifier" mdrCore="Perm"/>
                <ItemRef ItemOID="IT.AE.AEBODSYS" Mandatory="N" OrderNumber="21" Role="Record Qualifier" mdrCore="Exp"/>
                <ItemRef ItemOID="IT.AE.AEBDSYCD" Mandatory="N" OrderNumber="22" Role="Variable Qualifier" mdrCore="Exp"/>
                <ItemRef ItemOID="IT.AE.AESOC" Mandatory="N" OrderNumber="23" Role="Variable Qualifier" mdrCore="Exp"/>
                <ItemRef ItemOID="IT.AE.AESOCCD" Mandatory="N" OrderNumber="24" Role="Variable Qualifier" mdrCore="Exp"/>
                <ItemRef ItemOID="IT.AE.AELOC" Mandatory="N" OrderNumber="25" Role="Record Qualifier" mdrCore="Perm"/>
                <ItemRef ItemOID="IT.AE.AESEV" Mandatory="N" OrderNumber="26" Role="Record Qualifier" mdrCore="Perm"/>
                <ItemRef ItemOID="IT.AE.AESER" Mandatory="N" OrderNumber="27" Role="Record Qualifier" mdrCore="Exp"/>
                <ItemRef ItemOID="IT.AE.AEACN" Mandatory="N" OrderNumber="28" Role="Record Qualifier" mdrCore="Exp"/>
                <ItemRef ItemOID="IT.AE.AEACNOTH" Mandatory="N" OrderNumber="29" Role="Record Qualifier" mdrCore="Perm"/>
                <ItemRef ItemOID="IT.AE.AEREL" Mandatory="N" OrderNumber="30" Role="Record Qualifier" mdrCore="Exp"/>
                <ItemRef ItemOID="IT.AE.AERELNST" Mandatory="N" OrderNumber="31" Role="Record Qualifier" mdrCore="Perm"/>
                <ItemRef ItemOID="IT.AE.AEPATT" Mandatory="N" OrderNumber="32" Role="Record Qualifier" mdrCore="Perm"/>
                <ItemRef ItemOID="IT.AE.AEOUT" Mandatory="N" OrderNumber="33" Role="Record Qualifier" mdrCore="Perm"/>
                <ItemRef ItemOID="IT.AE.AESCAN" Mandatory="N" OrderNumber="34" Role="Record Qualifier" mdrCore="Perm"/>
                <ItemRef ItemOID="IT.AE.AESCONG" Mandatory="N" OrderNumber="35" Role="Record Qualifier" mdrCore="Perm"/>
                <ItemRef ItemOID="IT.AE.AESDISAB" Mandatory="N" OrderNumber="36" Role="Record Qualifier" mdrCore="Perm"/>
                <ItemRef ItemOID="IT.AE.AESDTH" Mandatory="N" OrderNumber="37" Role="Record Qualifier" mdrCore="Perm"/>
                <ItemRef ItemOID="IT.AE.AESHOSP" Mandatory="N" OrderNumber="38" Role="Record Qualifier" mdrCore="Perm"/>
                <ItemRef ItemOID="IT.AE.AESLIFE" Mandatory="N" OrderNumber="39" Role="Record Qualifier" mdrCore="Perm"/>
                <ItemRef ItemOID="IT.AE.AESOD" Mandatory="N" OrderNumber="40" Role="Record Qualifier" mdrCore="Perm"/>
                <ItemRef ItemOID="IT.AE.AESMIE" Mandatory="N" OrderNumber="41" Role="Record Qualifier" mdrCore="Perm"/>
                <ItemRef ItemOID="IT.AE.AECONTRT" Mandatory="N" OrderNumber="42" Role="Record Qualifier" mdrCore="Perm"/>
                <ItemRef ItemOID="IT.AE.AETOXGR" Mandatory="N" OrderNumber="43" Role="Record Qualifier" mdrCore="Perm"/>
                <ItemRef ItemOID="IT.AE.TAETORD" Mandatory="N" OrderNumber="44" Role="Timing" mdrCore="Perm"/>
                <ItemRef ItemOID="IT.AE.EPOCH" Mandatory="N" OrderNumber="45" Role="Timing" mdrCore="Perm"/>
                <ItemRef ItemOID="IT.AE.AESTDTC" Mandatory="N" OrderNumber="46" Role="Timing" mdrCore="Exp"/>
                <ItemRef ItemOID="IT.AE.AEENDTC" Mandatory="N" OrderNumber="47" Role="Timing" mdrCore="Exp"/>
                <ItemRef ItemOID="IT.AE.AESTDY" Mandatory="N" OrderNumber="48" Role="Timing" mdrCore="Perm"/>
                <ItemRef ItemOID="IT.AE.AEENDY" Mandatory="N" OrderNumber="49" Role="Timing" mdrCore="Perm"/>
                <ItemRef ItemOID="IT.AE.AEDUR" Mandatory="N" OrderNumber="50" Role="Timing" mdrCore="Perm"/>
                <ItemRef ItemOID="IT.AE.AEENRF" Mandatory="N" OrderNumber="51" Role="Timing" mdrCore="Perm"/>
                <ItemRef ItemOID="IT.AE.AEENRTPT" Mandatory="N" OrderNumber="52" Role="Timing" mdrCore="Perm"/>
                <ItemRef ItemOID="IT.AE.AEENTPT" Mandatory="N" OrderNumber="53" Role="Timing" mdrCore="Perm"/>
                <def:Class Name="Events Observation Class"/>
            </ItemGroupDef>
            <ItemGroupDef Name="CM" OID="CLIB.IG.CM" Purpose="SDTM Specification" def:StandardOID="CDISCLIB.sdtmig-3-3" def:Structure="One record per recorded intervention occurrence or constant-dosing interval per subject">
                <Description>
                    <TranslatedText>Concomitant/Prior Medications</TranslatedText>
                </Description>
                <ItemRef ItemOID="IT.CM.STUDYID" Mandatory="Y" OrderNumber="1" Role="Identifier" mdrCore="Req"/>
                <ItemRef ItemOID="IT.CM.DOMAIN" Mandatory="Y" OrderNumber="2" Role="Identifier" mdrCore="Req"/>
                <ItemRef ItemOID="IT.CM.USUBJID" Mandatory="Y" OrderNumber="3" Role="Identifier" mdrCore="Req"/>
                <ItemRef ItemOID="IT.CM.CMSEQ" Mandatory="Y" OrderNumber="4" Role="Identifier" mdrCore="Req"/>
                <ItemRef ItemOID="IT.CM.CMGRPID" Mandatory="N" OrderNumber="5" Role="Identifier" mdrCore="Perm"/>
                <ItemRef ItemOID="IT.CM.CMSPID" Mandatory="N" OrderNumber="6" Role="Identifier" mdrCore="Perm"/>
                <ItemRef ItemOID="IT.CM.CMTRT" Mandatory="Y" OrderNumber="7" Role="Topic" mdrCore="Req"/>
                <ItemRef ItemOID="IT.CM.CMMODIFY" Mandatory="N" OrderNumber="8" Role="Synonym Qualifier" mdrCore="Perm"/>
                <ItemRef ItemOID="IT.CM.CMDECOD" Mandatory="N" OrderNumber="9" Role="Synonym Qualifier" mdrCore="Perm"/>
                <ItemRef ItemOID="IT.CM.CMCAT" Mandatory="N" OrderNumber="10" Role="Grouping Qualifier" mdrCore="Perm"/>
                <ItemRef ItemOID="IT.CM.CMSCAT" Mandatory="N" OrderNumber="11" Role="Grouping Qualifier" mdrCore="Perm"/>
                <ItemRef ItemOID="IT.CM.CMPRESP" Mandatory="N" OrderNumber="12" Role="Variable Qualifier" mdrCore="Perm"/>
                <ItemRef ItemOID="IT.CM.CMOCCUR" Mandatory="N" OrderNumber="13" Role="Record Qualifier" mdrCore="Perm"/>
                <ItemRef ItemOID="IT.CM.CMSTAT" Mandatory="N" OrderNumber="14" Role="Record Qualifier" mdrCore="Perm"/>
                <ItemRef ItemOID="IT.CM.CMREASND" Mandatory="N" OrderNumber="15" Role="Record Qualifier" mdrCore="Perm"/>
                <ItemRef ItemOID="IT.CM.CMINDC" Mandatory="N" OrderNumber="16" Role="Record Qualifier" mdrCore="Perm"/>
                <ItemRef ItemOID="IT.CM.CMCLAS" Mandatory="N" OrderNumber="17" Role="Variable Qualifier" mdrCore="Perm"/>
                <ItemRef ItemOID="IT.CM.CMCLASCD" Mandatory="N" OrderNumber="18" Role="Variable Qualifier" mdrCore="Perm"/>
                <ItemRef ItemOID="IT.CM.CMDOSE" Mandatory="N" OrderNumber="19" Role="Record Qualifier" mdrCore="Perm"/>
                <ItemRef ItemOID="IT.CM.CMDOSTXT" Mandatory="N" OrderNumber="20" Role="Record Qualifier" mdrCore="Perm"/>
                <ItemRef ItemOID="IT.CM.CMDOSU" Mandatory="N" OrderNumber="21" Role="Variable Qualifier" mdrCore="Perm"/>
                <ItemRef ItemOID="IT.CM.CMDOSFRM" Mandatory="N" OrderNumber="22" Role="Variable Qualifier" mdrCore="Perm"/>
                <ItemRef ItemOID="IT.CM.CMDOSFRQ" Mandatory="N" OrderNumber="23" Role="Variable Qualifier" mdrCore="Perm"/>
                <ItemRef ItemOID="IT.CM.CMDOSTOT" Mandatory="N" OrderNumber="24" Role="Record Qualifier" mdrCore="Perm"/>
                <ItemRef ItemOID="IT.CM.CMDOSRGM" Mandatory="N" OrderNumber="25" Role="Variable Qualifier" mdrCore="Perm"/>
                <ItemRef ItemOID="IT.CM.CMROUTE" Mandatory="N" OrderNumber="26" Role="Variable Qualifier" mdrCore="Perm"/>
                <ItemRef ItemOID="IT.CM.CMADJ" Mandatory="N" OrderNumber="27" Role="Record Qualifier" mdrCore="Perm"/>
                <ItemRef ItemOID="IT.CM.CMRSDISC" Mandatory="N" OrderNumber="28" Role="Record Qualifier" mdrCore="Perm"/>
                <ItemRef ItemOID="IT.CM.TAETORD" Mandatory="N" OrderNumber="29" Role="Timing" mdrCore="Perm"/>
                <ItemRef ItemOID="IT.CM.EPOCH" Mandatory="N" OrderNumber="30" Role="Timing" mdrCore="Perm"/>
                <ItemRef ItemOID="IT.CM.CMSTDTC" Mandatory="N" OrderNumber="31" Role="Timing" mdrCore="Perm"/>
                <ItemRef ItemOID="IT.CM.CMENDTC" Mandatory="N" OrderNumber="32" Role="Timing" mdrCore="Perm"/>
                <ItemRef ItemOID="IT.CM.CMSTDY" Mandatory="N" OrderNumber="33" Role="Timing" mdrCore="Perm"/>
                <ItemRef ItemOID="IT.CM.CMENDY" Mandatory="N" OrderNumber="34" Role="Timing" mdrCore="Perm"/>
                <ItemRef ItemOID="IT.CM.CMDUR" Mandatory="N" OrderNumber="35" Role="Timing" mdrCore="Perm"/>
                <ItemRef ItemOID="IT.CM.CMSTRF" Mandatory="N" OrderNumber="36" Role="Timing" mdrCore="Perm"/>
                <ItemRef ItemOID="IT.CM.CMENRF" Mandatory="N" OrderNumber="37" Role="Timing" mdrCore="Perm"/>
                <ItemRef ItemOID="IT.CM.CMSTRTPT" Mandatory="N" OrderNumber="38" Role="Timing" mdrCore="Perm"/>
                <ItemRef ItemOID="IT.CM.CMSTTPT" Mandatory="N" OrderNumber="39" Role="Timing" mdrCore="Perm"/>
                <ItemRef ItemOID="IT.CM.CMENRTPT" Mandatory="N" OrderNumber="40" Role="Timing" mdrCore="Perm"/>
                <ItemRef ItemOID="IT.CM.CMENTPT" Mandatory="N" OrderNumber="41" Role="Timing" mdrCore="Perm"/>
                <def:Class Name="Interventions Observation Class"/>
            </ItemGroupDef>
            <ItemGroupDef Name="EG" OID="CLIB.IG.EG" Purpose="SDTM Specification" def:StandardOID="CDISCLIB.sdtmig-3-3" def:Structure="One record per ECG observation per replicate per time point or one record per ECG observation per beat per visit per subject">
                <Description>
                    <TranslatedText>ECG Test Results</TranslatedText>
                </Description>
                <ItemRef ItemOID="IT.EG.STUDYID" Mandatory="Y" OrderNumber="1" Role="Identifier" mdrCore="Req"/>
                <ItemRef ItemOID="IT.EG.DOMAIN" Mandatory="Y" OrderNumber="2" Role="Identifier" mdrCore="Req"/>
                <ItemRef ItemOID="IT.EG.USUBJID" Mandatory="Y" OrderNumber="3" Role="Identifier" mdrCore="Req"/>
                <ItemRef ItemOID="IT.EG.SPDEVID" Mandatory="N" OrderNumber="4" Role="Identifier" mdrCore="Perm"/>
                <ItemRef ItemOID="IT.EG.EGSEQ" Mandatory="Y" OrderNumber="5" Role="Identifier" mdrCore="Req"/>
                <ItemRef ItemOID="IT.EG.EGGRPID" Mandatory="N" OrderNumber="6" Role="Identifier" mdrCore="Perm"/>
                <ItemRef ItemOID="IT.EG.EGREFID" Mandatory="N" OrderNumber="7" Role="Identifier" mdrCore="Perm"/>
                <ItemRef ItemOID="IT.EG.EGSPID" Mandatory="N" OrderNumber="8" Role="Identifier" mdrCore="Perm"/>
                <ItemRef ItemOID="IT.EG.EGTESTCD" Mandatory="Y" OrderNumber="9" Role="Topic" mdrCore="Req"/>
                <ItemRef ItemOID="IT.EG.EGTEST" Mandatory="Y" OrderNumber="10" Role="Synonym Qualifier" mdrCore="Req"/>
                <ItemRef ItemOID="IT.EG.EGCAT" Mandatory="N" OrderNumber="11" Role="Grouping Qualifier" mdrCore="Perm"/>
                <ItemRef ItemOID="IT.EG.EGSCAT" Mandatory="N" OrderNumber="12" Role="Grouping Qualifier" mdrCore="Perm"/>
                <ItemRef ItemOID="IT.EG.EGPOS" Mandatory="N" OrderNumber="13" Role="Record Qualifier" mdrCore="Perm"/>
                <ItemRef ItemOID="IT.EG.EGBEATNO" Mandatory="N" OrderNumber="14" Role="Variable Qualifier" mdrCore="Perm"/>
                <ItemRef ItemOID="IT.EG.EGORRES" Mandatory="N" OrderNumber="15" Role="Result Qualifier" mdrCore="Exp"/>
                <ItemRef ItemOID="IT.EG.EGORRESU" Mandatory="N" OrderNumber="16" Role="Variable Qualifier" mdrCore="Perm"/>
                <ItemRef ItemOID="IT.EG.EGSTRESC" Mandatory="N" OrderNumber="17" Role="Result Qualifier" mdrCore="Exp"/>
                <ItemRef ItemOID="IT.EG.EGSTRESN" Mandatory="N" OrderNumber="18" Role="Result Qualifier" mdrCore="Perm"/>
                <ItemRef ItemOID="IT.EG.EGSTRESU" Mandatory="N" OrderNumber="19" Role="Variable Qualifier" mdrCore="Perm"/>
                <ItemRef ItemOID="IT.EG.EGSTAT" Mandatory="N" OrderNumber="20" Role="Record Qualifier" mdrCore="Perm"/>
                <ItemRef ItemOID="IT.EG.EGREASND" Mandatory="N" OrderNumber="21" Role="Record Qualifier" mdrCore="Perm"/>
                <ItemRef ItemOID="IT.EG.EGXFN" Mandatory="N" OrderNumber="22" Role="Record Qualifier" mdrCore="Perm"/>
                <ItemRef ItemOID="IT.EG.EGNAM" Mandatory="N" OrderNumber="23" Role="Record Qualifier" mdrCore="Perm"/>
                <ItemRef ItemOID="IT.EG.EGMETHOD" Mandatory="N" OrderNumber="24" Role="Record Qualifier" mdrCore="Perm"/>
                <ItemRef ItemOID="IT.EG.EGLEAD" Mandatory="N" OrderNumber="25" Role="Record Qualifier" mdrCore="Perm"/>
                <ItemRef ItemOID="IT.EG.EGLOBXFL" Mandatory="N" OrderNumber="26" Role="Record Qualifier" mdrCore="Exp"/>
                <ItemRef ItemOID="IT.EG.EGBLFL" Mandatory="N" OrderNumber="27" Role="Record Qualifier" mdrCore="Perm"/>
                <ItemRef ItemOID="IT.EG.EGDRVFL" Mandatory="N" OrderNumber="28" Role="Record Qualifier" mdrCore="Perm"/>
                <ItemRef ItemOID="IT.EG.EGEVAL" Mandatory="N" OrderNumber="29" Role="Record Qualifier" mdrCore="Perm"/>
                <ItemRef ItemOID="IT.EG.EGEVALID" Mandatory="N" OrderNumber="30" Role="Variable Qualifier" mdrCore="Perm"/>
                <ItemRef ItemOID="IT.EG.EGREPNUM" Mandatory="N" OrderNumber="31" Role="Record Qualifier" mdrCore="Perm"/>
                <ItemRef ItemOID="IT.EG.VISITNUM" Mandatory="N" OrderNumber="32" Role="Timing" mdrCore="Exp"/>
                <ItemRef ItemOID="IT.EG.VISIT" Mandatory="N" OrderNumber="33" Role="Timing" mdrCore="Perm"/>
                <ItemRef ItemOID="IT.EG.VISITDY" Mandatory="N" OrderNumber="34" Role="Timing" mdrCore="Perm"/>
                <ItemRef ItemOID="IT.EG.TAETORD" Mandatory="N" OrderNumber="35" Role="Timing" mdrCore="Perm"/>
                <ItemRef ItemOID="IT.EG.EPOCH" Mandatory="N" OrderNumber="36" Role="Timing" mdrCore="Perm"/>
                <ItemRef ItemOID="IT.EG.EGDTC" Mandatory="N" OrderNumber="37" Role="Timing" mdrCore="Exp"/>
                <ItemRef ItemOID="IT.EG.EGDY" Mandatory="N" OrderNumber="38" Role="Timing" mdrCore="Perm"/>
                <ItemRef ItemOID="IT.EG.EGTPT" Mandatory="N" OrderNumber="39" Role="Timing" mdrCore="Perm"/>
                <ItemRef ItemOID="IT.EG.EGTPTNUM" Mandatory="N" OrderNumber="40" Role="Timing" mdrCore="Perm"/>
                <ItemRef ItemOID="IT.EG.EGELTM" Mandatory="N" OrderNumber="41" Role="Timing" mdrCore="Perm"/>
                <ItemRef ItemOID="IT.EG.EGTPTREF" Mandatory="N" OrderNumber="42" Role="Timing" mdrCore="Perm"/>
                <ItemRef ItemOID="IT.EG.EGRFTDTC" Mandatory="N" OrderNumber="43" Role="Timing" mdrCore="Perm"/>
                <def:Class Name="Findings Observation Class"/>
            </ItemGroupDef>
            <ItemGroupDef Name="LB" OID="CLIB.IG.LB" Purpose="SDTM Specification" def:StandardOID="CDISCLIB.sdtmig-3-3" def:Structure="One record per lab test per time point per visit per subject">
                <Description>
                    <TranslatedText>Laboratory Test Results</TranslatedText>
                </Description>
                <ItemRef ItemOID="IT.LB.STUDYID" Mandatory="Y" OrderNumber="1" Role="Identifier" mdrCore="Req"/>
                <ItemRef ItemOID="IT.LB.DOMAIN" Mandatory="Y" OrderNumber="2" Role="Identifier" mdrCore="Req"/>
                <ItemRef ItemOID="IT.LB.USUBJID" Mandatory="Y" OrderNumber="3" Role="Identifier" mdrCore="Req"/>
                <ItemRef ItemOID="IT.LB.LBSEQ" Mandatory="Y" OrderNumber="4" Role="Identifier" mdrCore="Req"/>
                <ItemRef ItemOID="IT.LB.LBGRPID" Mandatory="N" OrderNumber="5" Role="Identifier" mdrCore="Perm"/>
                <ItemRef ItemOID="IT.LB.LBREFID" Mandatory="N" OrderNumber="6" Role="Identifier" mdrCore="Perm"/>
                <ItemRef ItemOID="IT.LB.LBSPID" Mandatory="N" OrderNumber="7" Role="Identifier" mdrCore="Perm"/>
                <ItemRef ItemOID="IT.LB.LBTESTCD" Mandatory="Y" OrderNumber="8" Role="Topic" mdrCore="Req"/>
                <ItemRef ItemOID="IT.LB.LBTEST" Mandatory="Y" OrderNumber="9" Role="Synonym Qualifier" mdrCore="Req"/>
                <ItemRef ItemOID="IT.LB.LBCAT" Mandatory="N" OrderNumber="10" Role="Grouping Qualifier" mdrCore="Exp"/>
                <ItemRef ItemOID="IT.LB.LBSCAT" Mandatory="N" OrderNumber="11" Role="Grouping Qualifier" mdrCore="Perm"/>
                <ItemRef ItemOID="IT.LB.LBORRES" Mandatory="N" OrderNumber="12" Role="Result Qualifier" mdrCore="Exp"/>
                <ItemRef ItemOID="IT.LB.LBORRESU" Mandatory="N" OrderNumber="13" Role="Variable Qualifier" mdrCore="Exp"/>
                <ItemRef ItemOID="IT.LB.LBORNRLO" Mandatory="N" OrderNumber="14" Role="Variable Qualifier" mdrCore="Exp"/>
                <ItemRef ItemOID="IT.LB.LBORNRHI" Mandatory="N" OrderNumber="15" Role="Variable Qualifier" mdrCore="Exp"/>
                <ItemRef ItemOID="IT.LB.LBSTRESC" Mandatory="N" OrderNumber="16" Role="Result Qualifier" mdrCore="Exp"/>
                <ItemRef ItemOID="IT.LB.LBSTRESN" Mandatory="N" OrderNumber="17" Role="Result Qualifier" mdrCore="Exp"/>
                <ItemRef ItemOID="IT.LB.LBSTRESU" Mandatory="N" OrderNumber="18" Role="Variable Qualifier" mdrCore="Exp"/>
                <ItemRef ItemOID="IT.LB.LBSTNRLO" Mandatory="N" OrderNumber="19" Role="Variable Qualifier" mdrCore="Exp"/>
                <ItemRef ItemOID="IT.LB.LBSTNRHI" Mandatory="N" OrderNumber="20" Role="Variable Qualifier" mdrCore="Exp"/>
                <ItemRef ItemOID="IT.LB.LBSTNRC" Mandatory="N" OrderNumber="21" Role="Variable Qualifier" mdrCore="Perm"/>
                <ItemRef ItemOID="IT.LB.LBSTREFC" Mandatory="N" OrderNumber="22" Role="Variable Qualifier" mdrCore="Exp"/>
                <ItemRef ItemOID="IT.LB.LBNRIND" Mandatory="N" OrderNumber="23" Role="Variable Qualifier" mdrCore="Exp"/>
                <ItemRef ItemOID="IT.LB.LBSTAT" Mandatory="N" OrderNumber="24" Role="Record Qualifier" mdrCore="Perm"/>
                <ItemRef ItemOID="IT.LB.LBREASND" Mandatory="N" OrderNumber="25" Role="Record Qualifier" mdrCore="Perm"/>
                <ItemRef ItemOID="IT.LB.LBNAM" Mandatory="N" OrderNumber="26" Role="Record Qualifier" mdrCore="Perm"/>
                <ItemRef ItemOID="IT.LB.LBLOINC" Mandatory="N" OrderNumber="27" Role="Synonym Qualifier" mdrCore="Perm"/>
                <ItemRef ItemOID="IT.LB.LBSPEC" Mandatory="N" OrderNumber="28" Role="Record Qualifier" mdrCore="Perm"/>
                <ItemRef ItemOID="IT.LB.LBSPCCND" Mandatory="N" OrderNumber="29" Role="Record Qualifier" mdrCore="Perm"/>
                <ItemRef ItemOID="IT.LB.LBMETHOD" Mandatory="N" OrderNumber="30" Role="Record Qualifier" mdrCore="Perm"/>
                <ItemRef ItemOID="IT.LB.LBLOBXFL" Mandatory="N" OrderNumber="31" Role="Record Qualifier" mdrCore="Exp"/>
                <ItemRef ItemOID="IT.LB.LBBLFL" Mandatory="N" OrderNumber="32" Role="Record Qualifier" mdrCore="Perm"/>
                <ItemRef ItemOID="IT.LB.LBFAST" Mandatory="N" OrderNumber="33" Role="Record Qualifier" mdrCore="Perm"/>
                <ItemRef ItemOID="IT.LB.LBDRVFL" Mandatory="N" OrderNumber="34" Role="Record Qualifier" mdrCore="Perm"/>
                <ItemRef ItemOID="IT.LB.LBTOX" Mandatory="N" OrderNumber="35" Role="Variable Qualifier" mdrCore="Perm"/>
                <ItemRef ItemOID="IT.LB.LBTOXGR" Mandatory="N" OrderNumber="36" Role="Record Qualifier" mdrCore="Perm"/>
                <ItemRef ItemOID="IT.LB.VISITNUM" Mandatory="N" OrderNumber="37" Role="Timing" mdrCore="Exp"/>
                <ItemRef ItemOID="IT.LB.VISIT" Mandatory="N" OrderNumber="38" Role="Timing" mdrCore="Perm"/>
                <ItemRef ItemOID="IT.LB.VISITDY" Mandatory="N" OrderNumber="39" Role="Timing" mdrCore="Perm"/>
                <ItemRef ItemOID="IT.LB.TAETORD" Mandatory="N" OrderNumber="40" Role="Timing" mdrCore="Perm"/>
                <ItemRef ItemOID="IT.LB.EPOCH" Mandatory="N" OrderNumber="41" Role="Timing" mdrCore="Perm"/>
                <ItemRef ItemOID="IT.LB.LBDTC" Mandatory="N" OrderNumber="42" Role="Timing" mdrCore="Exp"/>
                <ItemRef ItemOID="IT.LB.LBENDTC" Mandatory="N" OrderNumber="43" Role="Timing" mdrCore="Perm"/>
                <ItemRef ItemOID="IT.LB.LBDY" Mandatory="N" OrderNumber="44" Role="Timing" mdrCore="Perm"/>
                <ItemRef ItemOID="IT.LB.LBENDY" Mandatory="N" OrderNumber="45" Role="Timing" mdrCore="Perm"/>
                <ItemRef ItemOID="IT.LB.LBTPT" Mandatory="N" OrderNumber="46" Role="Timing" mdrCore="Perm"/>
                <ItemRef ItemOID="IT.LB.LBTPTNUM" Mandatory="N" OrderNumber="47" Role="Timing" mdrCore="Perm"/>
                <ItemRef ItemOID="IT.LB.LBELTM" Mandatory="N" OrderNumber="48" Role="Timing" mdrCore="Perm"/>
                <ItemRef ItemOID="IT.LB.LBTPTREF" Mandatory="N" OrderNumber="49" Role="Timing" mdrCore="Perm"/>
                <ItemRef ItemOID="IT.LB.LBRFTDTC" Mandatory="N" OrderNumber="50" Role="Timing" mdrCore="Perm"/>
                <def:Class Name="Findings Observation Class"/>
            </ItemGroupDef>
            <ItemGroupDef Name="SU" OID="CLIB.IG.SU" Purpose="SDTM Specification" def:StandardOID="CDISCLIB.sdtmig-3-3" def:Structure="One record per substance type per reported occurrence per subject">
                <Description>
                    <TranslatedText>Substance Use</TranslatedText>
                </Description>
                <ItemRef ItemOID="IT.SU.STUDYID" Mandatory="Y" OrderNumber="1" Role="Identifier" mdrCore="Req"/>
                <ItemRef ItemOID="IT.SU.DOMAIN" Mandatory="Y" OrderNumber="2" Role="Identifier" mdrCore="Req"/>
                <ItemRef ItemOID="IT.SU.USUBJID" Mandatory="Y" OrderNumber="3" Role="Identifier" mdrCore="Req"/>
                <ItemRef ItemOID="IT.SU.SUSEQ" Mandatory="Y" OrderNumber="4" Role="Identifier" mdrCore="Req"/>
                <ItemRef ItemOID="IT.SU.SUGRPID" Mandatory="N" OrderNumber="5" Role="Identifier" mdrCore="Perm"/>
                <ItemRef ItemOID="IT.SU.SUSPID" Mandatory="N" OrderNumber="6" Role="Identifier" mdrCore="Perm"/>
                <ItemRef ItemOID="IT.SU.SUTRT" Mandatory="Y" OrderNumber="7" Role="Topic" mdrCore="Req"/>
                <ItemRef ItemOID="IT.SU.SUMODIFY" Mandatory="N" OrderNumber="8" Role="Synonym Qualifier" mdrCore="Perm"/>
                <ItemRef ItemOID="IT.SU.SUDECOD" Mandatory="N" OrderNumber="9" Role="Synonym Qualifier" mdrCore="Perm"/>
                <ItemRef ItemOID="IT.SU.SUCAT" Mandatory="N" OrderNumber="10" Role="Grouping Qualifier" mdrCore="Perm"/>
                <ItemRef ItemOID="IT.SU.SUSCAT" Mandatory="N" OrderNumber="11" Role="Grouping Qualifier" mdrCore="Perm"/>
                <ItemRef ItemOID="IT.SU.SUPRESP" Mandatory="N" OrderNumber="12" Role="Variable Qualifier" mdrCore="Perm"/>
                <ItemRef ItemOID="IT.SU.SUOCCUR" Mandatory="N" OrderNumber="13" Role="Record Qualifier" mdrCore="Perm"/>
                <ItemRef ItemOID="IT.SU.SUSTAT" Mandatory="N" OrderNumber="14" Role="Record Qualifier" mdrCore="Perm"/>
                <ItemRef ItemOID="IT.SU.SUREASND" Mandatory="N" OrderNumber="15" Role="Record Qualifier" mdrCore="Perm"/>
                <ItemRef ItemOID="IT.SU.SUCLAS" Mandatory="N" OrderNumber="16" Role="Variable Qualifier" mdrCore="Perm"/>
                <ItemRef ItemOID="IT.SU.SUCLASCD" Mandatory="N" OrderNumber="17" Role="Variable Qualifier" mdrCore="Perm"/>
                <ItemRef ItemOID="IT.SU.SUDOSE" Mandatory="N" OrderNumber="18" Role="Record Qualifier" mdrCore="Perm"/>
                <ItemRef ItemOID="IT.SU.SUDOSTXT" Mandatory="N" OrderNumber="19" Role="Record Qualifier" mdrCore="Perm"/>
                <ItemRef ItemOID="IT.SU.SUDOSU" Mandatory="N" OrderNumber="20" Role="Variable Qualifier" mdrCore="Perm"/>
                <ItemRef ItemOID="IT.SU.SUDOSFRM" Mandatory="N" OrderNumber="21" Role="Variable Qualifier" mdrCore="Perm"/>
                <ItemRef ItemOID="IT.SU.SUDOSFRQ" Mandatory="N" OrderNumber="22" Role="Variable Qualifier" mdrCore="Perm"/>
                <ItemRef ItemOID="IT.SU.SUDOSTOT" Mandatory="N" OrderNumber="23" Role="Record Qualifier" mdrCore="Perm"/>
                <ItemRef ItemOID="IT.SU.SUROUTE" Mandatory="N" OrderNumber="24" Role="Variable Qualifier" mdrCore="Perm"/>
                <ItemRef ItemOID="IT.SU.TAETORD" Mandatory="N" OrderNumber="25" Role="Timing" mdrCore="Perm"/>
                <ItemRef ItemOID="IT.SU.EPOCH" Mandatory="N" OrderNumber="26" Role="Timing" mdrCore="Perm"/>
                <ItemRef ItemOID="IT.SU.SUSTDTC" Mandatory="N" OrderNumber="27" Role="Timing" mdrCore="Perm"/>
                <ItemRef ItemOID="IT.SU.SUENDTC" Mandatory="N" OrderNumber="28" Role="Timing" mdrCore="Perm"/>
                <ItemRef ItemOID="IT.SU.SUSTDY" Mandatory="N" OrderNumber="29" Role="Timing" mdrCore="Perm"/>
                <ItemRef ItemOID="IT.SU.SUENDY" Mandatory="N" OrderNumber="30" Role="Timing" mdrCore="Perm"/>
                <ItemRef ItemOID="IT.SU.SUDUR" Mandatory="N" OrderNumber="31" Role="Timing" mdrCore="Perm"/>
                <ItemRef ItemOID="IT.SU.SUSTRF" Mandatory="N" OrderNumber="32" Role="Timing" mdrCore="Perm"/>
                <ItemRef ItemOID="IT.SU.SUENRF" Mandatory="N" OrderNumber="33" Role="Timing" mdrCore="Perm"/>
                <ItemRef ItemOID="IT.SU.SUSTRTPT" Mandatory="N" OrderNumber="34" Role="Timing" mdrCore="Perm"/>
                <ItemRef ItemOID="IT.SU.SUSTTPT" Mandatory="N" OrderNumber="35" Role="Timing" mdrCore="Perm"/>
                <ItemRef ItemOID="IT.SU.SUENRTPT" Mandatory="N" OrderNumber="36" Role="Timing" mdrCore="Perm"/>
                <ItemRef ItemOID="IT.SU.SUENTPT" Mandatory="N" OrderNumber="37" Role="Timing" mdrCore="Perm"/>
                <def:Class Name="Interventions Observation Class"/>
            </ItemGroupDef>
            <ItemGroupDef Name="VS" OID="CLIB.IG.VS" Purpose="SDTM Specification" def:StandardOID="CDISCLIB.sdtmig-3-3" def:Structure="One record per vital sign measurement per time point per visit per subject">
                <Description>
                    <TranslatedText>Vital Signs</TranslatedText>
                </Description>
                <ItemRef ItemOID="IT.VS.STUDYID" Mandatory="Y" OrderNumber="1" Role="Identifier" mdrCore="Req"/>
                <ItemRef ItemOID="IT.VS.DOMAIN" Mandatory="Y" OrderNumber="2" Role="Identifier" mdrCore="Req"/>
                <ItemRef ItemOID="IT.VS.USUBJID" Mandatory="Y" OrderNumber="3" Role="Identifier" mdrCore="Req"/>
                <ItemRef ItemOID="IT.VS.VSSEQ" Mandatory="Y" OrderNumber="4" Role="Identifier" mdrCore="Req"/>
                <ItemRef ItemOID="IT.VS.VSGRPID" Mandatory="N" OrderNumber="5" Role="Identifier" mdrCore="Perm"/>
                <ItemRef ItemOID="IT.VS.VSSPID" Mandatory="N" OrderNumber="6" Role="Identifier" mdrCore="Perm"/>
                <ItemRef ItemOID="IT.VS.VSTESTCD" Mandatory="Y" OrderNumber="7" Role="Topic" mdrCore="Req"/>
                <ItemRef ItemOID="IT.VS.VSTEST" Mandatory="Y" OrderNumber="8" Role="Synonym Qualifier" mdrCore="Req"/>
                <ItemRef ItemOID="IT.VS.VSCAT" Mandatory="N" OrderNumber="9" Role="Grouping Qualifier" mdrCore="Perm"/>
                <ItemRef ItemOID="IT.VS.VSSCAT" Mandatory="N" OrderNumber="10" Role="Grouping Qualifier" mdrCore="Perm"/>
                <ItemRef ItemOID="IT.VS.VSPOS" Mandatory="N" OrderNumber="11" Role="Record Qualifier" mdrCore="Perm"/>
                <ItemRef ItemOID="IT.VS.VSORRES" Mandatory="N" OrderNumber="12" Role="Result Qualifier" mdrCore="Exp"/>
                <ItemRef ItemOID="IT.VS.VSORRESU" Mandatory="N" OrderNumber="13" Role="Variable Qualifier" mdrCore="Exp"/>
                <ItemRef ItemOID="IT.VS.VSSTRESC" Mandatory="N" OrderNumber="14" Role="Result Qualifier" mdrCore="Exp"/>
                <ItemRef ItemOID="IT.VS.VSSTRESN" Mandatory="N" OrderNumber="15" Role="Result Qualifier" mdrCore="Exp"/>
                <ItemRef ItemOID="IT.VS.VSSTRESU" Mandatory="N" OrderNumber="16" Role="Variable Qualifier" mdrCore="Exp"/>
                <ItemRef ItemOID="IT.VS.VSSTAT" Mandatory="N" OrderNumber="17" Role="Record Qualifier" mdrCore="Perm"/>
                <ItemRef ItemOID="IT.VS.VSREASND" Mandatory="N" OrderNumber="18" Role="Record Qualifier" mdrCore="Perm"/>
                <ItemRef ItemOID="IT.VS.VSLOC" Mandatory="N" OrderNumber="19" Role="Record Qualifier" mdrCore="Perm"/>
                <ItemRef ItemOID="IT.VS.VSLAT" Mandatory="N" OrderNumber="20" Role="Result Qualifier" mdrCore="Perm"/>
                <ItemRef ItemOID="IT.VS.VSLOBXFL" Mandatory="N" OrderNumber="21" Role="Record Qualifier" mdrCore="Exp"/>
                <ItemRef ItemOID="IT.VS.VSBLFL" Mandatory="N" OrderNumber="22" Role="Record Qualifier" mdrCore="Perm"/>
                <ItemRef ItemOID="IT.VS.VSDRVFL" Mandatory="N" OrderNumber="23" Role="Record Qualifier" mdrCore="Perm"/>
                <ItemRef ItemOID="IT.VS.VISITNUM" Mandatory="N" OrderNumber="24" Role="Timing" mdrCore="Exp"/>
                <ItemRef ItemOID="IT.VS.VISIT" Mandatory="N" OrderNumber="25" Role="Timing" mdrCore="Perm"/>
                <ItemRef ItemOID="IT.VS.VISITDY" Mandatory="N" OrderNumber="26" Role="Timing" mdrCore="Perm"/>
                <ItemRef ItemOID="IT.VS.TAETORD" Mandatory="N" OrderNumber="27" Role="Timing" mdrCore="Perm"/>
                <ItemRef ItemOID="IT.VS.EPOCH" Mandatory="N" OrderNumber="28" Role="Timing" mdrCore="Perm"/>
                <ItemRef ItemOID="IT.VS.VSDTC" Mandatory="N" OrderNumber="29" Role="Timing" mdrCore="Exp"/>
                <ItemRef ItemOID="IT.VS.VSDY" Mandatory="N" OrderNumber="30" Role="Timing" mdrCore="Perm"/>
                <ItemRef ItemOID="IT.VS.VSTPT" Mandatory="N" OrderNumber="31" Role="Timing" mdrCore="Perm"/>
                <ItemRef ItemOID="IT.VS.VSTPTNUM" Mandatory="N" OrderNumber="32" Role="Timing" mdrCore="Perm"/>
                <ItemRef ItemOID="IT.VS.VSELTM" Mandatory="N" OrderNumber="33" Role="Timing" mdrCore="Perm"/>
                <ItemRef ItemOID="IT.VS.VSTPTREF" Mandatory="N" OrderNumber="34" Role="Timing" mdrCore="Perm"/>
                <ItemRef ItemOID="IT.VS.VSRFTDTC" Mandatory="N" OrderNumber="35" Role="Timing" mdrCore="Perm"/>
                <def:Class Name="Findings Observation Class"/>
            </ItemGroupDef>
            <ItemDef DataType="text" Length="50" Name="STUDYID" OID="IT.DM.STUDYID" def:CommentOID="COM.IT.DM.STUDYID" xmlns:def="http://www.cdisc.org/ns/def/v2.1">
                <Description>
                    <TranslatedText>Study Identifier</TranslatedText>
                </Description>
            </ItemDef>
            <ItemDef DataType="text" Length="50" Name="DOMAIN" OID="IT.DM.DOMAIN" def:CommentOID="COM.IT.DM.DOMAIN" xmlns:def="http://www.cdisc.org/ns/def/v2.1">
                <Description>
                    <TranslatedText>Domain Abbreviation</TranslatedText>
                </Description>
            </ItemDef>
            <ItemDef DataType="text" Length="50" Name="USUBJID" OID="IT.DM.USUBJID" def:CommentOID="COM.IT.DM.USUBJID" xmlns:def="http://www.cdisc.org/ns/def/v2.1">
                <Description>
                    <TranslatedText>Unique Subject Identifier</TranslatedText>
                </Description>
            </ItemDef>
            <ItemDef DataType="text" Length="50" Name="SUBJID" OID="IT.DM.SUBJID" def:CommentOID="COM.IT.DM.SUBJID" xmlns:def="http://www.cdisc.org/ns/def/v2.1">
                <Description>
                    <TranslatedText>Subject Identifier for the Study</TranslatedText>
                </Description>
            </ItemDef>
            <ItemDef DataType="text" Length="50" Name="RFSTDTC" OID="IT.DM.RFSTDTC" def:CommentOID="COM.IT.DM.RFSTDTC" xmlns:def="http://www.cdisc.org/ns/def/v2.1">
                <Description>
                    <TranslatedText>Subject Reference Start Date/Time</TranslatedText>
                </Description>
            </ItemDef>
            <ItemDef DataType="text" Length="50" Name="RFENDTC" OID="IT.DM.RFENDTC" def:CommentOID="COM.IT.DM.RFENDTC" xmlns:def="http://www.cdisc.org/ns/def/v2.1">
                <Description>
                    <TranslatedText>Subject Reference End Date/Time</TranslatedText>
                </Description>
            </ItemDef>
            <ItemDef DataType="text" Length="50" Name="RFXSTDTC" OID="IT.DM.RFXSTDTC" def:CommentOID="COM.IT.DM.RFXSTDTC" xmlns:def="http://www.cdisc.org/ns/def/v2.1">
                <Description>
                    <TranslatedText>Date/Time of First Study Treatment</TranslatedText>
                </Description>
            </ItemDef>
            <ItemDef DataType="text" Length="50" Name="RFXENDTC" OID="IT.DM.RFXENDTC" def:CommentOID="COM.IT.DM.RFXENDTC" xmlns:def="http://www.cdisc.org/ns/def/v2.1">
                <Description>
                    <TranslatedText>Date/Time of Last Study Treatment</TranslatedText>
                </Description>
            </ItemDef>
            <ItemDef DataType="text" Length="50" Name="RFICDTC" OID="IT.DM.RFICDTC" def:CommentOID="COM.IT.DM.RFICDTC" xmlns:def="http://www.cdisc.org/ns/def/v2.1">
                <Description>
                    <TranslatedText>Date/Time of Informed Consent</TranslatedText>
                </Description>
            </ItemDef>
            <ItemDef DataType="text" Length="50" Name="RFPENDTC" OID="IT.DM.RFPENDTC" def:CommentOID="COM.IT.DM.RFPENDTC" xmlns:def="http://www.cdisc.org/ns/def/v2.1">
                <Description>
                    <TranslatedText>Date/Time of End of Participation</TranslatedText>
                </Description>
            </ItemDef>
            <ItemDef DataType="text" Length="50" Name="DTHDTC" OID="IT.DM.DTHDTC" def:CommentOID="COM.IT.DM.DTHDTC" xmlns:def="http://www.cdisc.org/ns/def/v2.1">
                <Description>
                    <TranslatedText>Date/Time of Death</TranslatedText>
                </Description>
            </ItemDef>
            <ItemDef DataType="text" Length="50" Name="DTHFL" OID="IT.DM.DTHFL" def:CommentOID="COM.IT.DM.DTHFL" xmlns:def="http://www.cdisc.org/ns/def/v2.1">
                <Description>
                    <TranslatedText>Subject Death Flag</TranslatedText>
                </Description>
            </ItemDef>
            <ItemDef DataType="text" Length="50" Name="SITEID" OID="IT.DM.SITEID" def:CommentOID="COM.IT.DM.SITEID" xmlns:def="http://www.cdisc.org/ns/def/v2.1">
                <Description>
                    <TranslatedText>Study Site Identifier</TranslatedText>
                </Description>
            </ItemDef>
            <ItemDef DataType="text" Length="50" Name="INVID" OID="IT.DM.INVID" def:CommentOID="COM.IT.DM.INVID" xmlns:def="http://www.cdisc.org/ns/def/v2.1">
                <Description>
                    <TranslatedText>Investigator Identifier</TranslatedText>
                </Description>
            </ItemDef>
            <ItemDef DataType="text" Length="50" Name="INVNAM" OID="IT.DM.INVNAM" def:CommentOID="COM.IT.DM.INVNAM" xmlns:def="http://www.cdisc.org/ns/def/v2.1">
                <Description>
                    <TranslatedText>Investigator Name</TranslatedText>
                </Description>
            </ItemDef>
            <ItemDef DataType="text" Length="50" Name="BRTHDTC" OID="IT.DM.BRTHDTC" def:CommentOID="COM.IT.DM.BRTHDTC" xmlns:def="http://www.cdisc.org/ns/def/v2.1">
                <Description>
                    <TranslatedText>Date/Time of Birth</TranslatedText>
                </Description>
            </ItemDef>
            <ItemDef DataType="float" Name="AGE" OID="IT.DM.AGE" def:CommentOID="COM.IT.DM.AGE" xmlns:def="http://www.cdisc.org/ns/def/v2.1">
                <Description>
                    <TranslatedText>Age</TranslatedText>
                </Description>
            </ItemDef>
            <ItemDef DataType="text" Length="50" Name="AGEU" OID="IT.DM.AGEU" def:CommentOID="COM.IT.DM.AGEU" xmlns:def="http://www.cdisc.org/ns/def/v2.1">
                <Description>
                    <TranslatedText>Age Units</TranslatedText>
                </Description>
            </ItemDef>
            <ItemDef DataType="text" Length="50" Name="SEX" OID="IT.DM.SEX" def:CommentOID="COM.IT.DM.SEX" xmlns:def="http://www.cdisc.org/ns/def/v2.1">
                <Description>
                    <TranslatedText>Sex</TranslatedText>
                </Description>
            </ItemDef>
            <ItemDef DataType="text" Length="50" Name="RACE" OID="IT.DM.RACE" def:CommentOID="COM.IT.DM.RACE" xmlns:def="http://www.cdisc.org/ns/def/v2.1">
                <Description>
                    <TranslatedText>Race</TranslatedText>
                </Description>
            </ItemDef>
            <ItemDef DataType="text" Length="50" Name="ETHNIC" OID="IT.DM.ETHNIC" def:CommentOID="COM.IT.DM.ETHNIC" xmlns:def="http://www.cdisc.org/ns/def/v2.1">
                <Description>
                    <TranslatedText>Ethnicity</TranslatedText>
                </Description>
            </ItemDef>
            <ItemDef DataType="text" Length="50" Name="ARMCD" OID="IT.DM.ARMCD" def:CommentOID="COM.IT.DM.ARMCD" xmlns:def="http://www.cdisc.org/ns/def/v2.1">
                <Description>
                    <TranslatedText>Planned Arm Code</TranslatedText>
                </Description>
            </ItemDef>
            <ItemDef DataType="text" Length="50" Name="ARM" OID="IT.DM.ARM" def:CommentOID="COM.IT.DM.ARM" xmlns:def="http://www.cdisc.org/ns/def/v2.1">
                <Description>
                    <TranslatedText>Description of Planned Arm</TranslatedText>
                </Description>
            </ItemDef>
            <ItemDef DataType="text" Length="50" Name="ACTARMCD" OID="IT.DM.ACTARMCD" def:CommentOID="COM.IT.DM.ACTARMCD" xmlns:def="http://www.cdisc.org/ns/def/v2.1">
                <Description>
                    <TranslatedText>Actual Arm Code</TranslatedText>
                </Description>
            </ItemDef>
            <ItemDef DataType="text" Length="50" Name="ACTARM" OID="IT.DM.ACTARM" def:CommentOID="COM.IT.DM.ACTARM" xmlns:def="http://www.cdisc.org/ns/def/v2.1">
                <Description>
                    <TranslatedText>Description of Actual Arm</TranslatedText>
                </Description>
            </ItemDef>
            <ItemDef DataType="text" Length="50" Name="ARMNRS" OID="IT.DM.ARMNRS" def:CommentOID="COM.IT.DM.ARMNRS" xmlns:def="http://www.cdisc.org/ns/def/v2.1">
                <Description>
                    <TranslatedText>Reason Arm and/or Actual Arm is Null</TranslatedText>
                </Description>
            </ItemDef>
            <ItemDef DataType="text" Length="50" Name="ACTARMUD" OID="IT.DM.ACTARMUD" def:CommentOID="COM.IT.DM.ACTARMUD" xmlns:def="http://www.cdisc.org/ns/def/v2.1">
                <Description>
                    <TranslatedText>Description of Unplanned Actual Arm</TranslatedText>
                </Description>
            </ItemDef>
            <ItemDef DataType="text" Length="50" Name="COUNTRY" OID="IT.DM.COUNTRY" def:CommentOID="COM.IT.DM.COUNTRY" xmlns:def="http://www.cdisc.org/ns/def/v2.1">
                <Description>
                    <TranslatedText>Country</TranslatedText>
                </Description>
            </ItemDef>
            <ItemDef DataType="text" Length="50" Name="DMDTC" OID="IT.DM.DMDTC" def:CommentOID="COM.IT.DM.DMDTC" xmlns:def="http://www.cdisc.org/ns/def/v2.1">
                <Description>
                    <TranslatedText>Date/Time of Collection</TranslatedText>
                </Description>
            </ItemDef>
            <ItemDef DataType="float" Name="DMDY" OID="IT.DM.DMDY" def:CommentOID="COM.IT.DM.DMDY" xmlns:def="http://www.cdisc.org/ns/def/v2.1">
                <Description>
                    <TranslatedText>Study Day of Collection</TranslatedText>
                </Description>
            </ItemDef>
            <ItemDef DataType="text" Length="50" Name="STUDYID" OID="IT.DS.STUDYID" def:CommentOID="COM.IT.DS.STUDYID" xmlns:def="http://www.cdisc.org/ns/def/v2.1">
                <Description>
                    <TranslatedText>Study Identifier</TranslatedText>
                </Description>
            </ItemDef>
            <ItemDef DataType="text" Length="50" Name="DOMAIN" OID="IT.DS.DOMAIN" def:CommentOID="COM.IT.DS.DOMAIN" xmlns:def="http://www.cdisc.org/ns/def/v2.1">
                <Description>
                    <TranslatedText>Domain Abbreviation</TranslatedText>
                </Description>
            </ItemDef>
            <ItemDef DataType="text" Length="50" Name="USUBJID" OID="IT.DS.USUBJID" def:CommentOID="COM.IT.DS.USUBJID" xmlns:def="http://www.cdisc.org/ns/def/v2.1">
                <Description>
                    <TranslatedText>Unique Subject Identifier</TranslatedText>
                </Description>
            </ItemDef>
            <ItemDef DataType="float" Name="DSSEQ" OID="IT.DS.DSSEQ" def:CommentOID="COM.IT.DS.DSSEQ" xmlns:def="http://www.cdisc.org/ns/def/v2.1">
                <Description>
                    <TranslatedText>Sequence Number</TranslatedText>
                </Description>
            </ItemDef>
            <ItemDef DataType="text" Length="50" Name="DSGRPID" OID="IT.DS.DSGRPID" def:CommentOID="COM.IT.DS.DSGRPID" xmlns:def="http://www.cdisc.org/ns/def/v2.1">
                <Description>
                    <TranslatedText>Group ID</TranslatedText>
                </Description>
            </ItemDef>
            <ItemDef DataType="text" Length="50" Name="DSREFID" OID="IT.DS.DSREFID" def:CommentOID="COM.IT.DS.DSREFID" xmlns:def="http://www.cdisc.org/ns/def/v2.1">
                <Description>
                    <TranslatedText>Reference ID</TranslatedText>
                </Description>
            </ItemDef>
            <ItemDef DataType="text" Length="50" Name="DSSPID" OID="IT.DS.DSSPID" def:CommentOID="COM.IT.DS.DSSPID" xmlns:def="http://www.cdisc.org/ns/def/v2.1">
                <Description>
                    <TranslatedText>Sponsor-Defined Identifier</TranslatedText>
                </Description>
            </ItemDef>
            <ItemDef DataType="text" Length="50" Name="DSTERM" OID="IT.DS.DSTERM" def:CommentOID="COM.IT.DS.DSTERM" xmlns:def="http://www.cdisc.org/ns/def/v2.1">
                <Description>
                    <TranslatedText>Reported Term for the Disposition Event</TranslatedText>
                </Description>
            </ItemDef>
            <ItemDef DataType="text" Length="50" Name="DSDECOD" OID="IT.DS.DSDECOD" def:CommentOID="COM.IT.DS.DSDECOD" xmlns:def="http://www.cdisc.org/ns/def/v2.1">
                <Description>
                    <TranslatedText>Standardized Disposition Term</TranslatedText>
                </Description>
            </ItemDef>
            <ItemDef DataType="text" Length="50" Name="DSCAT" OID="IT.DS.DSCAT" def:CommentOID="COM.IT.DS.DSCAT" xmlns:def="http://www.cdisc.org/ns/def/v2.1">
                <Description>
                    <TranslatedText>Category for Disposition Event</TranslatedText>
                </Description>
            </ItemDef>
            <ItemDef DataType="text" Length="50" Name="DSSCAT" OID="IT.DS.DSSCAT" def:CommentOID="COM.IT.DS.DSSCAT" xmlns:def="http://www.cdisc.org/ns/def/v2.1">
                <Description>
                    <TranslatedText>Subcategory for Disposition Event</TranslatedText>
                </Description>
            </ItemDef>
            <ItemDef DataType="text" Length="50" Name="EPOCH" OID="IT.DS.EPOCH" def:CommentOID="COM.IT.DS.EPOCH" xmlns:def="http://www.cdisc.org/ns/def/v2.1">
                <Description>
                    <TranslatedText>Epoch</TranslatedText>
                </Description>
            </ItemDef>
            <ItemDef DataType="text" Length="50" Name="DSDTC" OID="IT.DS.DSDTC" def:CommentOID="COM.IT.DS.DSDTC" xmlns:def="http://www.cdisc.org/ns/def/v2.1">
                <Description>
                    <TranslatedText>Date/Time of Collection</TranslatedText>
                </Description>
            </ItemDef>
            <ItemDef DataType="text" Length="50" Name="DSSTDTC" OID="IT.DS.DSSTDTC" def:CommentOID="COM.IT.DS.DSSTDTC" xmlns:def="http://www.cdisc.org/ns/def/v2.1">
                <Description>
                    <TranslatedText>Start Date/Time of Disposition Event</TranslatedText>
                </Description>
            </ItemDef>
            <ItemDef DataType="float" Name="DSDY" OID="IT.DS.DSDY" def:CommentOID="COM.IT.DS.DSDY" xmlns:def="http://www.cdisc.org/ns/def/v2.1">
                <Description>
                    <TranslatedText>Study Day of Collection</TranslatedText>
                </Description>
            </ItemDef>
            <ItemDef DataType="float" Name="DSSTDY" OID="IT.DS.DSSTDY" def:CommentOID="COM.IT.DS.DSSTDY" xmlns:def="http://www.cdisc.org/ns/def/v2.1">
                <Description>
                    <TranslatedText>Study Day of Start of Disposition Event</TranslatedText>
                </Description>
            </ItemDef>
            <ItemDef DataType="text" Length="50" Name="STUDYID" OID="IT.EX.STUDYID" def:CommentOID="COM.IT.EX.STUDYID" xmlns:def="http://www.cdisc.org/ns/def/v2.1">
                <Description>
                    <TranslatedText>Study Identifier</TranslatedText>
                </Description>
            </ItemDef>
            <ItemDef DataType="text" Length="50" Name="DOMAIN" OID="IT.EX.DOMAIN" def:CommentOID="COM.IT.EX.DOMAIN" xmlns:def="http://www.cdisc.org/ns/def/v2.1">
                <Description>
                    <TranslatedText>Domain Abbreviation</TranslatedText>
                </Description>
            </ItemDef>
            <ItemDef DataType="text" Length="50" Name="USUBJID" OID="IT.EX.USUBJID" def:CommentOID="COM.IT.EX.USUBJID" xmlns:def="http://www.cdisc.org/ns/def/v2.1">
                <Description>
                    <TranslatedText>Unique Subject Identifier</TranslatedText>
                </Description>
            </ItemDef>
            <ItemDef DataType="float" Name="EXSEQ" OID="IT.EX.EXSEQ" def:CommentOID="COM.IT.EX.EXSEQ" xmlns:def="http://www.cdisc.org/ns/def/v2.1">
                <Description>
                    <TranslatedText>Sequence Number</TranslatedText>
                </Description>
            </ItemDef>
            <ItemDef DataType="text" Length="50" Name="EXGRPID" OID="IT.EX.EXGRPID" def:CommentOID="COM.IT.EX.EXGRPID" xmlns:def="http://www.cdisc.org/ns/def/v2.1">
                <Description>
                    <TranslatedText>Group ID</TranslatedText>
                </Description>
            </ItemDef>
            <ItemDef DataType="text" Length="50" Name="EXREFID" OID="IT.EX.EXREFID" def:CommentOID="COM.IT.EX.EXREFID" xmlns:def="http://www.cdisc.org/ns/def/v2.1">
                <Description>
                    <TranslatedText>Reference ID</TranslatedText>
                </Description>
            </ItemDef>
            <ItemDef DataType="text" Length="50" Name="EXSPID" OID="IT.EX.EXSPID" def:CommentOID="COM.IT.EX.EXSPID" xmlns:def="http://www.cdisc.org/ns/def/v2.1">
                <Description>
                    <TranslatedText>Sponsor-Defined Identifier</TranslatedText>
                </Description>
            </ItemDef>
            <ItemDef DataType="text" Length="50" Name="EXLNKID" OID="IT.EX.EXLNKID" def:CommentOID="COM.IT.EX.EXLNKID" xmlns:def="http://www.cdisc.org/ns/def/v2.1">
                <Description>
                    <TranslatedText>Link ID</TranslatedText>
                </Description>
            </ItemDef>
            <ItemDef DataType="text" Length="50" Name="EXLNKGRP" OID="IT.EX.EXLNKGRP" def:CommentOID="COM.IT.EX.EXLNKGRP" xmlns:def="http://www.cdisc.org/ns/def/v2.1">
                <Description>
                    <TranslatedText>Link Group ID</TranslatedText>
                </Description>
            </ItemDef>
            <ItemDef DataType="text" Length="50" Name="EXTRT" OID="IT.EX.EXTRT" def:CommentOID="COM.IT.EX.EXTRT" xmlns:def="http://www.cdisc.org/ns/def/v2.1">
                <Description>
                    <TranslatedText>Name of Treatment</TranslatedText>
                </Description>
            </ItemDef>
            <ItemDef DataType="text" Length="50" Name="EXCAT" OID="IT.EX.EXCAT" def:CommentOID="COM.IT.EX.EXCAT" xmlns:def="http://www.cdisc.org/ns/def/v2.1">
                <Description>
                    <TranslatedText>Category of Treatment</TranslatedText>
                </Description>
            </ItemDef>
            <ItemDef DataType="text" Length="50" Name="EXSCAT" OID="IT.EX.EXSCAT" def:CommentOID="COM.IT.EX.EXSCAT" xmlns:def="http://www.cdisc.org/ns/def/v2.1">
                <Description>
                    <TranslatedText>Subcategory of Treatment</TranslatedText>
                </Description>
            </ItemDef>
            <ItemDef DataType="float" Name="EXDOSE" OID="IT.EX.EXDOSE" def:CommentOID="COM.IT.EX.EXDOSE" xmlns:def="http://www.cdisc.org/ns/def/v2.1">
                <Description>
                    <TranslatedText>Dose</TranslatedText>
                </Description>
            </ItemDef>
            <ItemDef DataType="text" Length="50" Name="EXDOSTXT" OID="IT.EX.EXDOSTXT" def:CommentOID="COM.IT.EX.EXDOSTXT" xmlns:def="http://www.cdisc.org/ns/def/v2.1">
                <Description>
                    <TranslatedText>Dose Description</TranslatedText>
                </Description>
            </ItemDef>
            <ItemDef DataType="text" Length="50" Name="EXDOSU" OID="IT.EX.EXDOSU" def:CommentOID="COM.IT.EX.EXDOSU" xmlns:def="http://www.cdisc.org/ns/def/v2.1">
                <Description>
                    <TranslatedText>Dose Units</TranslatedText>
                </Description>
            </ItemDef>
            <ItemDef DataType="text" Length="50" Name="EXDOSFRM" OID="IT.EX.EXDOSFRM" def:CommentOID="COM.IT.EX.EXDOSFRM" xmlns:def="http://www.cdisc.org/ns/def/v2.1">
                <Description>
                    <TranslatedText>Dose Form</TranslatedText>
                </Description>
            </ItemDef>
            <ItemDef DataType="text" Length="50" Name="EXDOSFRQ" OID="IT.EX.EXDOSFRQ" def:CommentOID="COM.IT.EX.EXDOSFRQ" xmlns:def="http://www.cdisc.org/ns/def/v2.1">
                <Description>
                    <TranslatedText>Dosing Frequency per Interval</TranslatedText>
                </Description>
            </ItemDef>
            <ItemDef DataType="text" Length="50" Name="EXDOSRGM" OID="IT.EX.EXDOSRGM" def:CommentOID="COM.IT.EX.EXDOSRGM" xmlns:def="http://www.cdisc.org/ns/def/v2.1">
                <Description>
                    <TranslatedText>Intended Dose Regimen</TranslatedText>
                </Description>
            </ItemDef>
            <ItemDef DataType="text" Length="50" Name="EXROUTE" OID="IT.EX.EXROUTE" def:CommentOID="COM.IT.EX.EXROUTE" xmlns:def="http://www.cdisc.org/ns/def/v2.1">
                <Description>
                    <TranslatedText>Route of Administration</TranslatedText>
                </Description>
            </ItemDef>
            <ItemDef DataType="text" Length="50" Name="EXLOT" OID="IT.EX.EXLOT" def:CommentOID="COM.IT.EX.EXLOT" xmlns:def="http://www.cdisc.org/ns/def/v2.1">
                <Description>
                    <TranslatedText>Lot Number</TranslatedText>
                </Description>
            </ItemDef>
            <ItemDef DataType="text" Length="50" Name="EXLOC" OID="IT.EX.EXLOC" def:CommentOID="COM.IT.EX.EXLOC" xmlns:def="http://www.cdisc.org/ns/def/v2.1">
                <Description>
                    <TranslatedText>Location of Dose Administration</TranslatedText>
                </Description>
            </ItemDef>
            <ItemDef DataType="text" Length="50" Name="EXLAT" OID="IT.EX.EXLAT" def:CommentOID="COM.IT.EX.EXLAT" xmlns:def="http://www.cdisc.org/ns/def/v2.1">
                <Description>
                    <TranslatedText>Laterality</TranslatedText>
                </Description>
            </ItemDef>
            <ItemDef DataType="text" Length="50" Name="EXDIR" OID="IT.EX.EXDIR" def:CommentOID="COM.IT.EX.EXDIR" xmlns:def="http://www.cdisc.org/ns/def/v2.1">
                <Description>
                    <TranslatedText>Directionality</TranslatedText>
                </Description>
            </ItemDef>
            <ItemDef DataType="text" Length="50" Name="EXFAST" OID="IT.EX.EXFAST" def:CommentOID="COM.IT.EX.EXFAST" xmlns:def="http://www.cdisc.org/ns/def/v2.1">
                <Description>
                    <TranslatedText>Fasting Status</TranslatedText>
                </Description>
            </ItemDef>
            <ItemDef DataType="text" Length="50" Name="EXADJ" OID="IT.EX.EXADJ" def:CommentOID="COM.IT.EX.EXADJ" xmlns:def="http://www.cdisc.org/ns/def/v2.1">
                <Description>
                    <TranslatedText>Reason for Dose Adjustment</TranslatedText>
                </Description>
            </ItemDef>
            <ItemDef DataType="float" Name="TAETORD" OID="IT.EX.TAETORD" def:CommentOID="COM.IT.EX.TAETORD" xmlns:def="http://www.cdisc.org/ns/def/v2.1">
                <Description>
                    <TranslatedText>Planned Order of Element within Arm</TranslatedText>
                </Description>
            </ItemDef>
            <ItemDef DataType="text" Length="50" Name="EPOCH" OID="IT.EX.EPOCH" def:CommentOID="COM.IT.EX.EPOCH" xmlns:def="http://www.cdisc.org/ns/def/v2.1">
                <Description>
                    <TranslatedText>Epoch</TranslatedText>
                </Description>
            </ItemDef>
            <ItemDef DataType="text" Length="50" Name="EXSTDTC" OID="IT.EX.EXSTDTC" def:CommentOID="COM.IT.EX.EXSTDTC" xmlns:def="http://www.cdisc.org/ns/def/v2.1">
                <Description>
                    <TranslatedText>Start Date/Time of Treatment</TranslatedText>
                </Description>
            </ItemDef>
            <ItemDef DataType="text" Length="50" Name="EXENDTC" OID="IT.EX.EXENDTC" def:CommentOID="COM.IT.EX.EXENDTC" xmlns:def="http://www.cdisc.org/ns/def/v2.1">
                <Description>
                    <TranslatedText>End Date/Time of Treatment</TranslatedText>
                </Description>
            </ItemDef>
            <ItemDef DataType="float" Name="EXSTDY" OID="IT.EX.EXSTDY" def:CommentOID="COM.IT.EX.EXSTDY" xmlns:def="http://www.cdisc.org/ns/def/v2.1">
                <Description>
                    <TranslatedText>Study Day of Start of Treatment</TranslatedText>
                </Description>
            </ItemDef>
            <ItemDef DataType="float" Name="EXENDY" OID="IT.EX.EXENDY" def:CommentOID="COM.IT.EX.EXENDY" xmlns:def="http://www.cdisc.org/ns/def/v2.1">
                <Description>
                    <TranslatedText>Study Day of End of Treatment</TranslatedText>
                </Description>
            </ItemDef>
            <ItemDef DataType="text" Length="50" Name="EXDUR" OID="IT.EX.EXDUR" def:CommentOID="COM.IT.EX.EXDUR" xmlns:def="http://www.cdisc.org/ns/def/v2.1">
                <Description>
                    <TranslatedText>Duration of Treatment</TranslatedText>
                </Description>
            </ItemDef>
            <ItemDef DataType="text" Length="50" Name="EXTPT" OID="IT.EX.EXTPT" def:CommentOID="COM.IT.EX.EXTPT" xmlns:def="http://www.cdisc.org/ns/def/v2.1">
                <Description>
                    <TranslatedText>Planned Time Point Name</TranslatedText>
                </Description>
            </ItemDef>
            <ItemDef DataType="float" Name="EXTPTNUM" OID="IT.EX.EXTPTNUM" def:CommentOID="COM.IT.EX.EXTPTNUM" xmlns:def="http://www.cdisc.org/ns/def/v2.1">
                <Description>
                    <TranslatedText>Planned Time Point Number</TranslatedText>
                </Description>
            </ItemDef>
            <ItemDef DataType="text" Length="50" Name="EXELTM" OID="IT.EX.EXELTM" def:CommentOID="COM.IT.EX.EXELTM" xmlns:def="http://www.cdisc.org/ns/def/v2.1">
                <Description>
                    <TranslatedText>Planned Elapsed Time from Time Point Ref</TranslatedText>
                </Description>
            </ItemDef>
            <ItemDef DataType="text" Length="50" Name="EXTPTREF" OID="IT.EX.EXTPTREF" def:CommentOID="COM.IT.EX.EXTPTREF" xmlns:def="http://www.cdisc.org/ns/def/v2.1">
                <Description>
                    <TranslatedText>Time Point Reference</TranslatedText>
                </Description>
            </ItemDef>
            <ItemDef DataType="text" Length="50" Name="EXRFTDTC" OID="IT.EX.EXRFTDTC" def:CommentOID="COM.IT.EX.EXRFTDTC" xmlns:def="http://www.cdisc.org/ns/def/v2.1">
                <Description>
                    <TranslatedText>Date/Time of Reference Time Point</TranslatedText>
                </Description>
            </ItemDef>
            <ItemDef DataType="text" Length="50" Name="STUDYID" OID="IT.AE.STUDYID" def:CommentOID="COM.IT.AE.STUDYID" xmlns:def="http://www.cdisc.org/ns/def/v2.1">
                <Description>
                    <TranslatedText>Study Identifier</TranslatedText>
                </Description>
            </ItemDef>
            <ItemDef DataType="text" Length="50" Name="DOMAIN" OID="IT.AE.DOMAIN" def:CommentOID="COM.IT.AE.DOMAIN" xmlns:def="http://www.cdisc.org/ns/def/v2.1">
                <Description>
                    <TranslatedText>Domain Abbreviation</TranslatedText>
                </Description>
            </ItemDef>
            <ItemDef DataType="text" Length="50" Name="USUBJID" OID="IT.AE.USUBJID" def:CommentOID="COM.IT.AE.USUBJID" xmlns:def="http://www.cdisc.org/ns/def/v2.1">
                <Description>
                    <TranslatedText>Unique Subject Identifier</TranslatedText>
                </Description>
            </ItemDef>
            <ItemDef DataType="float" Name="AESEQ" OID="IT.AE.AESEQ" def:CommentOID="COM.IT.AE.AESEQ" xmlns:def="http://www.cdisc.org/ns/def/v2.1">
                <Description>
                    <TranslatedText>Sequence Number</TranslatedText>
                </Description>
            </ItemDef>
            <ItemDef DataType="text" Length="50" Name="AEGRPID" OID="IT.AE.AEGRPID" def:CommentOID="COM.IT.AE.AEGRPID" xmlns:def="http://www.cdisc.org/ns/def/v2.1">
                <Description>
                    <TranslatedText>Group ID</TranslatedText>
                </Description>
            </ItemDef>
            <ItemDef DataType="text" Length="50" Name="AEREFID" OID="IT.AE.AEREFID" def:CommentOID="COM.IT.AE.AEREFID" xmlns:def="http://www.cdisc.org/ns/def/v2.1">
                <Description>
                    <TranslatedText>Reference ID</TranslatedText>
                </Description>
            </ItemDef>
            <ItemDef DataType="text" Length="50" Name="AESPID" OID="IT.AE.AESPID" def:CommentOID="COM.IT.AE.AESPID" xmlns:def="http://www.cdisc.org/ns/def/v2.1">
                <Description>
                    <TranslatedText>Sponsor-Defined Identifier</TranslatedText>
                </Description>
            </ItemDef>
            <ItemDef DataType="text" Length="50" Name="AETERM" OID="IT.AE.AETERM" def:CommentOID="COM.IT.AE.AETERM" xmlns:def="http://www.cdisc.org/ns/def/v2.1">
                <Description>
                    <TranslatedText>Reported Term for the Adverse Event</TranslatedText>
                </Description>
            </ItemDef>
            <ItemDef DataType="text" Length="50" Name="AEMODIFY" OID="IT.AE.AEMODIFY" def:CommentOID="COM.IT.AE.AEMODIFY" xmlns:def="http://www.cdisc.org/ns/def/v2.1">
                <Description>
                    <TranslatedText>Modified Reported Term</TranslatedText>
                </Description>
            </ItemDef>
            <ItemDef DataType="text" Length="50" Name="AELLT" OID="IT.AE.AELLT" def:CommentOID="COM.IT.AE.AELLT" xmlns:def="http://www.cdisc.org/ns/def/v2.1">
                <Description>
                    <TranslatedText>Lowest Level Term</TranslatedText>
                </Description>
            </ItemDef>
            <ItemDef DataType="float" Name="AELLTCD" OID="IT.AE.AELLTCD" def:CommentOID="COM.IT.AE.AELLTCD" xmlns:def="http://www.cdisc.org/ns/def/v2.1">
                <Description>
                    <TranslatedText>Lowest Level Term Code</TranslatedText>
                </Description>
            </ItemDef>
            <ItemDef DataType="text" Length="50" Name="AEDECOD" OID="IT.AE.AEDECOD" def:CommentOID="COM.IT.AE.AEDECOD" xmlns:def="http://www.cdisc.org/ns/def/v2.1">
                <Description>
                    <TranslatedText>Dictionary-Derived Term</TranslatedText>
                </Description>
            </ItemDef>
            <ItemDef DataType="float" Name="AEPTCD" OID="IT.AE.AEPTCD" def:CommentOID="COM.IT.AE.AEPTCD" xmlns:def="http://www.cdisc.org/ns/def/v2.1">
                <Description>
                    <TranslatedText>Preferred Term Code</TranslatedText>
                </Description>
            </ItemDef>
            <ItemDef DataType="text" Length="50" Name="AEHLT" OID="IT.AE.AEHLT" def:CommentOID="COM.IT.AE.AEHLT" xmlns:def="http://www.cdisc.org/ns/def/v2.1">
                <Description>
                    <TranslatedText>High Level Term</TranslatedText>
                </Description>
            </ItemDef>
            <ItemDef DataType="float" Name="AEHLTCD" OID="IT.AE.AEHLTCD" def:CommentOID="COM.IT.AE.AEHLTCD" xmlns:def="http://www.cdisc.org/ns/def/v2.1">
                <Description>
                    <TranslatedText>High Level Term Code</TranslatedText>
                </Description>
            </ItemDef>
            <ItemDef DataType="text" Length="50" Name="AEHLGT" OID="IT.AE.AEHLGT" def:CommentOID="COM.IT.AE.AEHLGT" xmlns:def="http://www.cdisc.org/ns/def/v2.1">
                <Description>
                    <TranslatedText>High Level Group Term</TranslatedText>
                </Description>
            </ItemDef>
            <ItemDef DataType="float" Name="AEHLGTCD" OID="IT.AE.AEHLGTCD" def:CommentOID="COM.IT.AE.AEHLGTCD" xmlns:def="http://www.cdisc.org/ns/def/v2.1">
                <Description>
                    <TranslatedText>High Level Group Term Code</TranslatedText>
                </Description>
            </ItemDef>
            <ItemDef DataType="text" Length="50" Name="AECAT" OID="IT.AE.AECAT" def:CommentOID="COM.IT.AE.AECAT" xmlns:def="http://www.cdisc.org/ns/def/v2.1">
                <Description>
                    <TranslatedText>Category for Adverse Event</TranslatedText>
                </Description>
            </ItemDef>
            <ItemDef DataType="text" Length="50" Name="AESCAT" OID="IT.AE.AESCAT" def:CommentOID="COM.IT.AE.AESCAT" xmlns:def="http://www.cdisc.org/ns/def/v2.1">
                <Description>
                    <TranslatedText>Subcategory for Adverse Event</TranslatedText>
                </Description>
            </ItemDef>
            <ItemDef DataType="text" Length="50" Name="AEPRESP" OID="IT.AE.AEPRESP" def:CommentOID="COM.IT.AE.AEPRESP" xmlns:def="http://www.cdisc.org/ns/def/v2.1">
                <Description>
                    <TranslatedText>Pre-Specified Adverse Event</TranslatedText>
                </Description>
            </ItemDef>
            <ItemDef DataType="text" Length="50" Name="AEBODSYS" OID="IT.AE.AEBODSYS" def:CommentOID="COM.IT.AE.AEBODSYS" xmlns:def="http://www.cdisc.org/ns/def/v2.1">
                <Description>
                    <TranslatedText>Body System or Organ Class</TranslatedText>
                </Description>
            </ItemDef>
            <ItemDef DataType="float" Name="AEBDSYCD" OID="IT.AE.AEBDSYCD" def:CommentOID="COM.IT.AE.AEBDSYCD" xmlns:def="http://www.cdisc.org/ns/def/v2.1">
                <Description>
                    <TranslatedText>Body System or Organ Class Code</TranslatedText>
                </Description>
            </ItemDef>
            <ItemDef DataType="text" Length="50" Name="AESOC" OID="IT.AE.AESOC" def:CommentOID="COM.IT.AE.AESOC" xmlns:def="http://www.cdisc.org/ns/def/v2.1">
                <Description>
                    <TranslatedText>Primary System Organ Class</TranslatedText>
                </Description>
            </ItemDef>
            <ItemDef DataType="float" Name="AESOCCD" OID="IT.AE.AESOCCD" def:CommentOID="COM.IT.AE.AESOCCD" xmlns:def="http://www.cdisc.org/ns/def/v2.1">
                <Description>
                    <TranslatedText>Primary System Organ Class Code</TranslatedText>
                </Description>
            </ItemDef>
            <ItemDef DataType="text" Length="50" Name="AELOC" OID="IT.AE.AELOC" def:CommentOID="COM.IT.AE.AELOC" xmlns:def="http://www.cdisc.org/ns/def/v2.1">
                <Description>
                    <TranslatedText>Location of Event</TranslatedText>
                </Description>
            </ItemDef>
            <ItemDef DataType="text" Length="50" Name="AESEV" OID="IT.AE.AESEV" def:CommentOID="COM.IT.AE.AESEV" xmlns:def="http://www.cdisc.org/ns/def/v2.1">
                <Description>
                    <TranslatedText>Severity/Intensity</TranslatedText>
                </Description>
            </ItemDef>
            <ItemDef DataType="text" Length="50" Name="AESER" OID="IT.AE.AESER" def:CommentOID="COM.IT.AE.AESER" xmlns:def="http://www.cdisc.org/ns/def/v2.1">
                <Description>
                    <TranslatedText>Serious Event</TranslatedText>
                </Description>
            </ItemDef>
            <ItemDef DataType="text" Length="50" Name="AEACN" OID="IT.AE.AEACN" def:CommentOID="COM.IT.AE.AEACN" xmlns:def="http://www.cdisc.org/ns/def/v2.1">
                <Description>
                    <TranslatedText>Action Taken with Study Treatment</TranslatedText>
                </Description>
            </ItemDef>
            <ItemDef DataType="text" Length="50" Name="AEACNOTH" OID="IT.AE.AEACNOTH" def:CommentOID="COM.IT.AE.AEACNOTH" xmlns:def="http://www.cdisc.org/ns/def/v2.1">
                <Description>
                    <TranslatedText>Other Action Taken</TranslatedText>
                </Description>
            </ItemDef>
            <ItemDef DataType="text" Length="50" Name="AEREL" OID="IT.AE.AEREL" def:CommentOID="COM.IT.AE.AEREL" xmlns:def="http://www.cdisc.org/ns/def/v2.1">
                <Description>
                    <TranslatedText>Causality</TranslatedText>
                </Description>
            </ItemDef>
            <ItemDef DataType="text" Length="50" Name="AERELNST" OID="IT.AE.AERELNST" def:CommentOID="COM.IT.AE.AERELNST" xmlns:def="http://www.cdisc.org/ns/def/v2.1">
                <Description>
                    <TranslatedText>Relationship to Non-Study Treatment</TranslatedText>
                </Description>
            </ItemDef>
            <ItemDef DataType="text" Length="50" Name="AEPATT" OID="IT.AE.AEPATT" def:CommentOID="COM.IT.AE.AEPATT" xmlns:def="http://www.cdisc.org/ns/def/v2.1">
                <Description>
                    <TranslatedText>Pattern of Adverse Event</TranslatedText>
                </Description>
            </ItemDef>
            <ItemDef DataType="text" Length="50" Name="AEOUT" OID="IT.AE.AEOUT" def:CommentOID="COM.IT.AE.AEOUT" xmlns:def="http://www.cdisc.org/ns/def/v2.1">
                <Description>
                    <TranslatedText>Outcome of Adverse Event</TranslatedText>
                </Description>
            </ItemDef>
            <ItemDef DataType="text" Length="50" Name="AESCAN" OID="IT.AE.AESCAN" def:CommentOID="COM.IT.AE.AESCAN" xmlns:def="http://www.cdisc.org/ns/def/v2.1">
                <Description>
                    <TranslatedText>Involves Cancer</TranslatedText>
                </Description>
            </ItemDef>
            <ItemDef DataType="text" Length="50" Name="AESCONG" OID="IT.AE.AESCONG" def:CommentOID="COM.IT.AE.AESCONG" xmlns:def="http://www.cdisc.org/ns/def/v2.1">
                <Description>
                    <TranslatedText>Congenital Anomaly or Birth Defect</TranslatedText>
                </Description>
            </ItemDef>
            <ItemDef DataType="text" Length="50" Name="AESDISAB" OID="IT.AE.AESDISAB" def:CommentOID="COM.IT.AE.AESDISAB" xmlns:def="http://www.cdisc.org/ns/def/v2.1">
                <Description>
                    <TranslatedText>Persist or Signif Disability/Incapacity</TranslatedText>
                </Description>
            </ItemDef>
            <ItemDef DataType="text" Length="50" Name="AESDTH" OID="IT.AE.AESDTH" def:CommentOID="COM.IT.AE.AESDTH" xmlns:def="http://www.cdisc.org/ns/def/v2.1">
                <Description>
                    <TranslatedText>Results in Death</TranslatedText>
                </Description>
            </ItemDef>
            <ItemDef DataType="text" Length="50" Name="AESHOSP" OID="IT.AE.AESHOSP" def:CommentOID="COM.IT.AE.AESHOSP" xmlns:def="http://www.cdisc.org/ns/def/v2.1">
                <Description>
                    <TranslatedText>Requires or Prolongs Hospitalization</TranslatedText>
                </Description>
            </ItemDef>
            <ItemDef DataType="text" Length="50" Name="AESLIFE" OID="IT.AE.AESLIFE" def:CommentOID="COM.IT.AE.AESLIFE" xmlns:def="http://www.cdisc.org/ns/def/v2.1">
                <Description>
                    <TranslatedText>Is Life Threatening</TranslatedText>
                </Description>
            </ItemDef>
            <ItemDef DataType="text" Length="50" Name="AESOD" OID="IT.AE.AESOD" def:CommentOID="COM.IT.AE.AESOD" xmlns:def="http://www.cdisc.org/ns/def/v2.1">
                <Description>
                    <TranslatedText>Occurred with Overdose</TranslatedText>
                </Description>
            </ItemDef>
            <ItemDef DataType="text" Length="50" Name="AESMIE" OID="IT.AE.AESMIE" def:CommentOID="COM.IT.AE.AESMIE" xmlns:def="http://www.cdisc.org/ns/def/v2.1">
                <Description>
                    <TranslatedText>Other Medically Important Serious Event</TranslatedText>
                </Description>
            </ItemDef>
            <ItemDef DataType="text" Length="50" Name="AECONTRT" OID="IT.AE.AECONTRT" def:CommentOID="COM.IT.AE.AECONTRT" xmlns:def="http://www.cdisc.org/ns/def/v2.1">
                <Description>
                    <TranslatedText>Concomitant or Additional Trtmnt Given</TranslatedText>
                </Description>
            </ItemDef>
            <ItemDef DataType="text" Length="50" Name="AETOXGR" OID="IT.AE.AETOXGR" def:CommentOID="COM.IT.AE.AETOXGR" xmlns:def="http://www.cdisc.org/ns/def/v2.1">
                <Description>
                    <TranslatedText>Standard Toxicity Grade</TranslatedText>
                </Description>
            </ItemDef>
            <ItemDef DataType="float" Name="TAETORD" OID="IT.AE.TAETORD" def:CommentOID="COM.IT.AE.TAETORD" xmlns:def="http://www.cdisc.org/ns/def/v2.1">
                <Description>
                    <TranslatedText>Planned Order of Element within Arm</TranslatedText>
                </Description>
            </ItemDef>
            <ItemDef DataType="text" Length="50" Name="EPOCH" OID="IT.AE.EPOCH" def:CommentOID="COM.IT.AE.EPOCH" xmlns:def="http://www.cdisc.org/ns/def/v2.1">
                <Description>
                    <TranslatedText>Epoch</TranslatedText>
                </Description>
            </ItemDef>
            <ItemDef DataType="text" Length="50" Name="AESTDTC" OID="IT.AE.AESTDTC" def:CommentOID="COM.IT.AE.AESTDTC" xmlns:def="http://www.cdisc.org/ns/def/v2.1">
                <Description>
                    <TranslatedText>Start Date/Time of Adverse Event</TranslatedText>
                </Description>
            </ItemDef>
            <ItemDef DataType="text" Length="50" Name="AEENDTC" OID="IT.AE.AEENDTC" def:CommentOID="COM.IT.AE.AEENDTC" xmlns:def="http://www.cdisc.org/ns/def/v2.1">
                <Description>
                    <TranslatedText>End Date/Time of Adverse Event</TranslatedText>
                </Description>
            </ItemDef>
            <ItemDef DataType="float" Name="AESTDY" OID="IT.AE.AESTDY" def:CommentOID="COM.IT.AE.AESTDY" xmlns:def="http://www.cdisc.org/ns/def/v2.1">
                <Description>
                    <TranslatedText>Study Day of Start of Adverse Event</TranslatedText>
                </Description>
            </ItemDef>
            <ItemDef DataType="float" Name="AEENDY" OID="IT.AE.AEENDY" def:CommentOID="COM.IT.AE.AEENDY" xmlns:def="http://www.cdisc.org/ns/def/v2.1">
                <Description>
                    <TranslatedText>Study Day of End of Adverse Event</TranslatedText>
                </Description>
            </ItemDef>
            <ItemDef DataType="text" Length="50" Name="AEDUR" OID="IT.AE.AEDUR" def:CommentOID="COM.IT.AE.AEDUR" xmlns:def="http://www.cdisc.org/ns/def/v2.1">
                <Description>
                    <TranslatedText>Duration of Adverse Event</TranslatedText>
                </Description>
            </ItemDef>
            <ItemDef DataType="text" Length="50" Name="AEENRF" OID="IT.AE.AEENRF" def:CommentOID="COM.IT.AE.AEENRF" xmlns:def="http://www.cdisc.org/ns/def/v2.1">
                <Description>
                    <TranslatedText>End Relative to Reference Period</TranslatedText>
                </Description>
            </ItemDef>
            <ItemDef DataType="text" Length="50" Name="AEENRTPT" OID="IT.AE.AEENRTPT" def:CommentOID="COM.IT.AE.AEENRTPT" xmlns:def="http://www.cdisc.org/ns/def/v2.1">
                <Description>
                    <TranslatedText>End Relative to Reference Time Point</TranslatedText>
                </Description>
            </ItemDef>
            <ItemDef DataType="text" Length="50" Name="AEENTPT" OID="IT.AE.AEENTPT" def:CommentOID="COM.IT.AE.AEENTPT" xmlns:def="http://www.cdisc.org/ns/def/v2.1">
                <Description>
                    <TranslatedText>End Reference Time Point</TranslatedText>
                </Description>
            </ItemDef>
            <ItemDef DataType="text" Length="50" Name="STUDYID" OID="IT.CM.STUDYID" def:CommentOID="COM.IT.CM.STUDYID" xmlns:def="http://www.cdisc.org/ns/def/v2.1">
                <Description>
                    <TranslatedText>Study Identifier</TranslatedText>
                </Description>
            </ItemDef>
            <ItemDef DataType="text" Length="50" Name="DOMAIN" OID="IT.CM.DOMAIN" def:CommentOID="COM.IT.CM.DOMAIN" xmlns:def="http://www.cdisc.org/ns/def/v2.1">
                <Description>
                    <TranslatedText>Domain Abbreviation</TranslatedText>
                </Description>
            </ItemDef>
            <ItemDef DataType="text" Length="50" Name="USUBJID" OID="IT.CM.USUBJID" def:CommentOID="COM.IT.CM.USUBJID" xmlns:def="http://www.cdisc.org/ns/def/v2.1">
                <Description>
                    <TranslatedText>Unique Subject Identifier</TranslatedText>
                </Description>
            </ItemDef>
            <ItemDef DataType="float" Name="CMSEQ" OID="IT.CM.CMSEQ" def:CommentOID="COM.IT.CM.CMSEQ" xmlns:def="http://www.cdisc.org/ns/def/v2.1">
                <Description>
                    <TranslatedText>Sequence Number</TranslatedText>
                </Description>
            </ItemDef>
            <ItemDef DataType="text" Length="50" Name="CMGRPID" OID="IT.CM.CMGRPID" def:CommentOID="COM.IT.CM.CMGRPID" xmlns:def="http://www.cdisc.org/ns/def/v2.1">
                <Description>
                    <TranslatedText>Group ID</TranslatedText>
                </Description>
            </ItemDef>
            <ItemDef DataType="text" Length="50" Name="CMSPID" OID="IT.CM.CMSPID" def:CommentOID="COM.IT.CM.CMSPID" xmlns:def="http://www.cdisc.org/ns/def/v2.1">
                <Description>
                    <TranslatedText>Sponsor-Defined Identifier</TranslatedText>
                </Description>
            </ItemDef>
            <ItemDef DataType="text" Length="50" Name="CMTRT" OID="IT.CM.CMTRT" def:CommentOID="COM.IT.CM.CMTRT" xmlns:def="http://www.cdisc.org/ns/def/v2.1">
                <Description>
                    <TranslatedText>Reported Name of Drug, Med, or Therapy</TranslatedText>
                </Description>
            </ItemDef>
            <ItemDef DataType="text" Length="50" Name="CMMODIFY" OID="IT.CM.CMMODIFY" def:CommentOID="COM.IT.CM.CMMODIFY" xmlns:def="http://www.cdisc.org/ns/def/v2.1">
                <Description>
                    <TranslatedText>Modified Reported Name</TranslatedText>
                </Description>
            </ItemDef>
            <ItemDef DataType="text" Length="50" Name="CMDECOD" OID="IT.CM.CMDECOD" def:CommentOID="COM.IT.CM.CMDECOD" xmlns:def="http://www.cdisc.org/ns/def/v2.1">
                <Description>
                    <TranslatedText>Standardized Medication Name</TranslatedText>
                </Description>
            </ItemDef>
            <ItemDef DataType="text" Length="50" Name="CMCAT" OID="IT.CM.CMCAT" def:CommentOID="COM.IT.CM.CMCAT" xmlns:def="http://www.cdisc.org/ns/def/v2.1">
                <Description>
                    <TranslatedText>Category for Medication</TranslatedText>
                </Description>
            </ItemDef>
            <ItemDef DataType="text" Length="50" Name="CMSCAT" OID="IT.CM.CMSCAT" def:CommentOID="COM.IT.CM.CMSCAT" xmlns:def="http://www.cdisc.org/ns/def/v2.1">
                <Description>
                    <TranslatedText>Subcategory for Medication</TranslatedText>
                </Description>
            </ItemDef>
            <ItemDef DataType="text" Length="50" Name="CMPRESP" OID="IT.CM.CMPRESP" def:CommentOID="COM.IT.CM.CMPRESP" xmlns:def="http://www.cdisc.org/ns/def/v2.1">
                <Description>
                    <TranslatedText>CM Pre-specified</TranslatedText>
                </Description>
            </ItemDef>
            <ItemDef DataType="text" Length="50" Name="CMOCCUR" OID="IT.CM.CMOCCUR" def:CommentOID="COM.IT.CM.CMOCCUR" xmlns:def="http://www.cdisc.org/ns/def/v2.1">
                <Description>
                    <TranslatedText>CM Occurrence</TranslatedText>
                </Description>
            </ItemDef>
            <ItemDef DataType="text" Length="50" Name="CMSTAT" OID="IT.CM.CMSTAT" def:CommentOID="COM.IT.CM.CMSTAT" xmlns:def="http://www.cdisc.org/ns/def/v2.1">
                <Description>
                    <TranslatedText>Completion Status</TranslatedText>
                </Description>
            </ItemDef>
            <ItemDef DataType="text" Length="50" Name="CMREASND" OID="IT.CM.CMREASND" def:CommentOID="COM.IT.CM.CMREASND" xmlns:def="http://www.cdisc.org/ns/def/v2.1">
                <Description>
                    <TranslatedText>Reason Medication Not Collected</TranslatedText>
                </Description>
            </ItemDef>
            <ItemDef DataType="text" Length="50" Name="CMINDC" OID="IT.CM.CMINDC" def:CommentOID="COM.IT.CM.CMINDC" xmlns:def="http://www.cdisc.org/ns/def/v2.1">
                <Description>
                    <TranslatedText>Indication</TranslatedText>
                </Description>
            </ItemDef>
            <ItemDef DataType="text" Length="50" Name="CMCLAS" OID="IT.CM.CMCLAS" def:CommentOID="COM.IT.CM.CMCLAS" xmlns:def="http://www.cdisc.org/ns/def/v2.1">
                <Description>
                    <TranslatedText>Medication Class</TranslatedText>
                </Description>
            </ItemDef>
            <ItemDef DataType="text" Length="50" Name="CMCLASCD" OID="IT.CM.CMCLASCD" def:CommentOID="COM.IT.CM.CMCLASCD" xmlns:def="http://www.cdisc.org/ns/def/v2.1">
                <Description>
                    <TranslatedText>Medication Class Code</TranslatedText>
                </Description>
            </ItemDef>
            <ItemDef DataType="float" Name="CMDOSE" OID="IT.CM.CMDOSE" def:CommentOID="COM.IT.CM.CMDOSE" xmlns:def="http://www.cdisc.org/ns/def/v2.1">
                <Description>
                    <TranslatedText>Dose per Administration</TranslatedText>
                </Description>
            </ItemDef>
            <ItemDef DataType="text" Length="50" Name="CMDOSTXT" OID="IT.CM.CMDOSTXT" def:CommentOID="COM.IT.CM.CMDOSTXT" xmlns:def="http://www.cdisc.org/ns/def/v2.1">
                <Description>
                    <TranslatedText>Dose Description</TranslatedText>
                </Description>
            </ItemDef>
            <ItemDef DataType="text" Length="50" Name="CMDOSU" OID="IT.CM.CMDOSU" def:CommentOID="COM.IT.CM.CMDOSU" xmlns:def="http://www.cdisc.org/ns/def/v2.1">
                <Description>
                    <TranslatedText>Dose Units</TranslatedText>
                </Description>
            </ItemDef>
            <ItemDef DataType="text" Length="50" Name="CMDOSFRM" OID="IT.CM.CMDOSFRM" def:CommentOID="COM.IT.CM.CMDOSFRM" xmlns:def="http://www.cdisc.org/ns/def/v2.1">
                <Description>
                    <TranslatedText>Dose Form</TranslatedText>
                </Description>
            </ItemDef>
            <ItemDef DataType="text" Length="50" Name="CMDOSFRQ" OID="IT.CM.CMDOSFRQ" def:CommentOID="COM.IT.CM.CMDOSFRQ" xmlns:def="http://www.cdisc.org/ns/def/v2.1">
                <Description>
                    <TranslatedText>Dosing Frequency per Interval</TranslatedText>
                </Description>
            </ItemDef>
            <ItemDef DataType="float" Name="CMDOSTOT" OID="IT.CM.CMDOSTOT" def:CommentOID="COM.IT.CM.CMDOSTOT" xmlns:def="http://www.cdisc.org/ns/def/v2.1">
                <Description>
                    <TranslatedText>Total Daily Dose</TranslatedText>
                </Description>
            </ItemDef>
            <ItemDef DataType="text" Length="50" Name="CMDOSRGM" OID="IT.CM.CMDOSRGM" def:CommentOID="COM.IT.CM.CMDOSRGM" xmlns:def="http://www.cdisc.org/ns/def/v2.1">
                <Description>
                    <TranslatedText>Intended Dose Regimen</TranslatedText>
                </Description>
            </ItemDef>
            <ItemDef DataType="text" Length="50" Name="CMROUTE" OID="IT.CM.CMROUTE" def:CommentOID="COM.IT.CM.CMROUTE" xmlns:def="http://www.cdisc.org/ns/def/v2.1">
                <Description>
                    <TranslatedText>Route of Administration</TranslatedText>
                </Description>
            </ItemDef>
            <ItemDef DataType="text" Length="50" Name="CMADJ" OID="IT.CM.CMADJ" def:CommentOID="COM.IT.CM.CMADJ" xmlns:def="http://www.cdisc.org/ns/def/v2.1">
                <Description>
                    <TranslatedText>Reason for Dose Adjustment</TranslatedText>
                </Description>
            </ItemDef>
            <ItemDef DataType="text" Length="50" Name="CMRSDISC" OID="IT.CM.CMRSDISC" def:CommentOID="COM.IT.CM.CMRSDISC" xmlns:def="http://www.cdisc.org/ns/def/v2.1">
                <Description>
                    <TranslatedText>Reason the Intervention Was Discontinued</TranslatedText>
                </Description>
            </ItemDef>
            <ItemDef DataType="float" Name="TAETORD" OID="IT.CM.TAETORD" def:CommentOID="COM.IT.CM.TAETORD" xmlns:def="http://www.cdisc.org/ns/def/v2.1">
                <Description>
                    <TranslatedText>Planned Order of Element within Arm</TranslatedText>
                </Description>
            </ItemDef>
            <ItemDef DataType="text" Length="50" Name="EPOCH" OID="IT.CM.EPOCH" def:CommentOID="COM.IT.CM.EPOCH" xmlns:def="http://www.cdisc.org/ns/def/v2.1">
                <Description>
                    <TranslatedText>Epoch</TranslatedText>
                </Description>
            </ItemDef>
            <ItemDef DataType="text" Length="50" Name="CMSTDTC" OID="IT.CM.CMSTDTC" def:CommentOID="COM.IT.CM.CMSTDTC" xmlns:def="http://www.cdisc.org/ns/def/v2.1">
                <Description>
                    <TranslatedText>Start Date/Time of Medication</TranslatedText>
                </Description>
            </ItemDef>
            <ItemDef DataType="text" Length="50" Name="CMENDTC" OID="IT.CM.CMENDTC" def:CommentOID="COM.IT.CM.CMENDTC" xmlns:def="http://www.cdisc.org/ns/def/v2.1">
                <Description>
                    <TranslatedText>End Date/Time of Medication</TranslatedText>
                </Description>
            </ItemDef>
            <ItemDef DataType="float" Name="CMSTDY" OID="IT.CM.CMSTDY" def:CommentOID="COM.IT.CM.CMSTDY" xmlns:def="http://www.cdisc.org/ns/def/v2.1">
                <Description>
                    <TranslatedText>Study Day of Start of Medication</TranslatedText>
                </Description>
            </ItemDef>
            <ItemDef DataType="float" Name="CMENDY" OID="IT.CM.CMENDY" def:CommentOID="COM.IT.CM.CMENDY" xmlns:def="http://www.cdisc.org/ns/def/v2.1">
                <Description>
                    <TranslatedText>Study Day of End of Medication</TranslatedText>
                </Description>
            </ItemDef>
            <ItemDef DataType="text" Length="50" Name="CMDUR" OID="IT.CM.CMDUR" def:CommentOID="COM.IT.CM.CMDUR" xmlns:def="http://www.cdisc.org/ns/def/v2.1">
                <Description>
                    <TranslatedText>Duration</TranslatedText>
                </Description>
            </ItemDef>
            <ItemDef DataType="text" Length="50" Name="CMSTRF" OID="IT.CM.CMSTRF" def:CommentOID="COM.IT.CM.CMSTRF" xmlns:def="http://www.cdisc.org/ns/def/v2.1">
                <Description>
                    <TranslatedText>Start Relative to Reference Period</TranslatedText>
                </Description>
            </ItemDef>
            <ItemDef DataType="text" Length="50" Name="CMENRF" OID="IT.CM.CMENRF" def:CommentOID="COM.IT.CM.CMENRF" xmlns:def="http://www.cdisc.org/ns/def/v2.1">
                <Description>
                    <TranslatedText>End Relative to Reference Period</TranslatedText>
                </Description>
            </ItemDef>
            <ItemDef DataType="text" Length="50" Name="CMSTRTPT" OID="IT.CM.CMSTRTPT" def:CommentOID="COM.IT.CM.CMSTRTPT" xmlns:def="http://www.cdisc.org/ns/def/v2.1">
                <Description>
                    <TranslatedText>Start Relative to Reference Time Point</TranslatedText>
                </Description>
            </ItemDef>
            <ItemDef DataType="text" Length="50" Name="CMSTTPT" OID="IT.CM.CMSTTPT" def:CommentOID="COM.IT.CM.CMSTTPT" xmlns:def="http://www.cdisc.org/ns/def/v2.1">
                <Description>
                    <TranslatedText>Start Reference Time Point</TranslatedText>
                </Description>
            </ItemDef>
            <ItemDef DataType="text" Length="50" Name="CMENRTPT" OID="IT.CM.CMENRTPT" def:CommentOID="COM.IT.CM.CMENRTPT" xmlns:def="http://www.cdisc.org/ns/def/v2.1">
                <Description>
                    <TranslatedText>End Relative to Reference Time Point</TranslatedText>
                </Description>
            </ItemDef>
            <ItemDef DataType="text" Length="50" Name="CMENTPT" OID="IT.CM.CMENTPT" def:CommentOID="COM.IT.CM.CMENTPT" xmlns:def="http://www.cdisc.org/ns/def/v2.1">
                <Description>
                    <TranslatedText>End Reference Time Point</TranslatedText>
                </Description>
            </ItemDef>
            <ItemDef DataType="text" Length="50" Name="STUDYID" OID="IT.EG.STUDYID" def:CommentOID="COM.IT.EG.STUDYID" xmlns:def="http://www.cdisc.org/ns/def/v2.1">
                <Description>
                    <TranslatedText>Study Identifier</TranslatedText>
                </Description>
            </ItemDef>
            <ItemDef DataType="text" Length="50" Name="DOMAIN" OID="IT.EG.DOMAIN" def:CommentOID="COM.IT.EG.DOMAIN" xmlns:def="http://www.cdisc.org/ns/def/v2.1">
                <Description>
                    <TranslatedText>Domain Abbreviation</TranslatedText>
                </Description>
            </ItemDef>
            <ItemDef DataType="text" Length="50" Name="USUBJID" OID="IT.EG.USUBJID" def:CommentOID="COM.IT.EG.USUBJID" xmlns:def="http://www.cdisc.org/ns/def/v2.1">
                <Description>
                    <TranslatedText>Unique Subject Identifier</TranslatedText>
                </Description>
            </ItemDef>
            <ItemDef DataType="text" Length="50" Name="SPDEVID" OID="IT.EG.SPDEVID" def:CommentOID="COM.IT.EG.SPDEVID" xmlns:def="http://www.cdisc.org/ns/def/v2.1">
                <Description>
                    <TranslatedText>Sponsor Device Identifier</TranslatedText>
                </Description>
            </ItemDef>
            <ItemDef DataType="float" Name="EGSEQ" OID="IT.EG.EGSEQ" def:CommentOID="COM.IT.EG.EGSEQ" xmlns:def="http://www.cdisc.org/ns/def/v2.1">
                <Description>
                    <TranslatedText>Sequence Number</TranslatedText>
                </Description>
            </ItemDef>
            <ItemDef DataType="text" Length="50" Name="EGGRPID" OID="IT.EG.EGGRPID" def:CommentOID="COM.IT.EG.EGGRPID" xmlns:def="http://www.cdisc.org/ns/def/v2.1">
                <Description>
                    <TranslatedText>Group ID</TranslatedText>
                </Description>
            </ItemDef>
            <ItemDef DataType="text" Length="50" Name="EGREFID" OID="IT.EG.EGREFID" def:CommentOID="COM.IT.EG.EGREFID" xmlns:def="http://www.cdisc.org/ns/def/v2.1">
                <Description>
                    <TranslatedText>ECG Reference ID</TranslatedText>
                </Description>
            </ItemDef>
            <ItemDef DataType="text" Length="50" Name="EGSPID" OID="IT.EG.EGSPID" def:CommentOID="COM.IT.EG.EGSPID" xmlns:def="http://www.cdisc.org/ns/def/v2.1">
                <Description>
                    <TranslatedText>Sponsor-Defined Identifier</TranslatedText>
                </Description>
            </ItemDef>
            <ItemDef DataType="text" Length="50" Name="EGTESTCD" OID="IT.EG.EGTESTCD" def:CommentOID="COM.IT.EG.EGTESTCD" xmlns:def="http://www.cdisc.org/ns/def/v2.1">
                <Description>
                    <TranslatedText>ECG Test or Examination Short Name</TranslatedText>
                </Description>
            </ItemDef>
            <ItemDef DataType="text" Length="50" Name="EGTEST" OID="IT.EG.EGTEST" def:CommentOID="COM.IT.EG.EGTEST" xmlns:def="http://www.cdisc.org/ns/def/v2.1">
                <Description>
                    <TranslatedText>ECG Test or Examination Name</TranslatedText>
                </Description>
            </ItemDef>
            <ItemDef DataType="text" Length="50" Name="EGCAT" OID="IT.EG.EGCAT" def:CommentOID="COM.IT.EG.EGCAT" xmlns:def="http://www.cdisc.org/ns/def/v2.1">
                <Description>
                    <TranslatedText>Category for ECG</TranslatedText>
                </Description>
            </ItemDef>
            <ItemDef DataType="text" Length="50" Name="EGSCAT" OID="IT.EG.EGSCAT" def:CommentOID="COM.IT.EG.EGSCAT" xmlns:def="http://www.cdisc.org/ns/def/v2.1">
                <Description>
                    <TranslatedText>Subcategory for ECG</TranslatedText>
                </Description>
            </ItemDef>
            <ItemDef DataType="text" Length="50" Name="EGPOS" OID="IT.EG.EGPOS" def:CommentOID="COM.IT.EG.EGPOS" xmlns:def="http://www.cdisc.org/ns/def/v2.1">
                <Description>
                    <TranslatedText>ECG Position of Subject</TranslatedText>
                </Description>
            </ItemDef>
            <ItemDef DataType="float" Name="EGBEATNO" OID="IT.EG.EGBEATNO" def:CommentOID="COM.IT.EG.EGBEATNO" xmlns:def="http://www.cdisc.org/ns/def/v2.1">
                <Description>
                    <TranslatedText>ECG Beat Number</TranslatedText>
                </Description>
            </ItemDef>
            <ItemDef DataType="text" Length="50" Name="EGORRES" OID="IT.EG.EGORRES" def:CommentOID="COM.IT.EG.EGORRES" xmlns:def="http://www.cdisc.org/ns/def/v2.1">
                <Description>
                    <TranslatedText>Result or Finding in Original Units</TranslatedText>
                </Description>
            </ItemDef>
            <ItemDef DataType="text" Length="50" Name="EGORRESU" OID="IT.EG.EGORRESU" def:CommentOID="COM.IT.EG.EGORRESU" xmlns:def="http://www.cdisc.org/ns/def/v2.1">
                <Description>
                    <TranslatedText>Original Units</TranslatedText>
                </Description>
            </ItemDef>
            <ItemDef DataType="text" Length="50" Name="EGSTRESC" OID="IT.EG.EGSTRESC" def:CommentOID="COM.IT.EG.EGSTRESC" xmlns:def="http://www.cdisc.org/ns/def/v2.1">
                <Description>
                    <TranslatedText>Character Result/Finding in Std Format</TranslatedText>
                </Description>
            </ItemDef>
            <ItemDef DataType="float" Name="EGSTRESN" OID="IT.EG.EGSTRESN" def:CommentOID="COM.IT.EG.EGSTRESN" xmlns:def="http://www.cdisc.org/ns/def/v2.1">
                <Description>
                    <TranslatedText>Numeric Result/Finding in Standard Units</TranslatedText>
                </Description>
            </ItemDef>
            <ItemDef DataType="text" Length="50" Name="EGSTRESU" OID="IT.EG.EGSTRESU" def:CommentOID="COM.IT.EG.EGSTRESU" xmlns:def="http://www.cdisc.org/ns/def/v2.1">
                <Description>
                    <TranslatedText>Standard Units</TranslatedText>
                </Description>
            </ItemDef>
            <ItemDef DataType="text" Length="50" Name="EGSTAT" OID="IT.EG.EGSTAT" def:CommentOID="COM.IT.EG.EGSTAT" xmlns:def="http://www.cdisc.org/ns/def/v2.1">
                <Description>
                    <TranslatedText>Completion Status</TranslatedText>
                </Description>
            </ItemDef>
            <ItemDef DataType="text" Length="50" Name="EGREASND" OID="IT.EG.EGREASND" def:CommentOID="COM.IT.EG.EGREASND" xmlns:def="http://www.cdisc.org/ns/def/v2.1">
                <Description>
                    <TranslatedText>Reason ECG Not Done</TranslatedText>
                </Description>
            </ItemDef>
            <ItemDef DataType="text" Length="50" Name="EGXFN" OID="IT.EG.EGXFN" def:CommentOID="COM.IT.EG.EGXFN" xmlns:def="http://www.cdisc.org/ns/def/v2.1">
                <Description>
                    <TranslatedText>ECG External File Path</TranslatedText>
                </Description>
            </ItemDef>
            <ItemDef DataType="text" Length="50" Name="EGNAM" OID="IT.EG.EGNAM" def:CommentOID="COM.IT.EG.EGNAM" xmlns:def="http://www.cdisc.org/ns/def/v2.1">
                <Description>
                    <TranslatedText>Vendor Name</TranslatedText>
                </Description>
            </ItemDef>
            <ItemDef DataType="text" Length="50" Name="EGMETHOD" OID="IT.EG.EGMETHOD" def:CommentOID="COM.IT.EG.EGMETHOD" xmlns:def="http://www.cdisc.org/ns/def/v2.1">
                <Description>
                    <TranslatedText>Method of Test or Examination</TranslatedText>
                </Description>
            </ItemDef>
            <ItemDef DataType="text" Length="50" Name="EGLEAD" OID="IT.EG.EGLEAD" def:CommentOID="COM.IT.EG.EGLEAD" xmlns:def="http://www.cdisc.org/ns/def/v2.1">
                <Description>
                    <TranslatedText>Lead Location Used for Measurement</TranslatedText>
                </Description>
            </ItemDef>
            <ItemDef DataType="text" Length="50" Name="EGLOBXFL" OID="IT.EG.EGLOBXFL" def:CommentOID="COM.IT.EG.EGLOBXFL" xmlns:def="http://www.cdisc.org/ns/def/v2.1">
                <Description>
                    <TranslatedText>Last Observation Before Exposure Flag</TranslatedText>
                </Description>
            </ItemDef>
            <ItemDef DataType="text" Length="50" Name="EGBLFL" OID="IT.EG.EGBLFL" def:CommentOID="COM.IT.EG.EGBLFL" xmlns:def="http://www.cdisc.org/ns/def/v2.1">
                <Description>
                    <TranslatedText>Baseline Flag</TranslatedText>
                </Description>
            </ItemDef>
            <ItemDef DataType="text" Length="50" Name="EGDRVFL" OID="IT.EG.EGDRVFL" def:CommentOID="COM.IT.EG.EGDRVFL" xmlns:def="http://www.cdisc.org/ns/def/v2.1">
                <Description>
                    <TranslatedText>Derived Flag</TranslatedText>
                </Description>
            </ItemDef>
            <ItemDef DataType="text" Length="50" Name="EGEVAL" OID="IT.EG.EGEVAL" def:CommentOID="COM.IT.EG.EGEVAL" xmlns:def="http://www.cdisc.org/ns/def/v2.1">
                <Description>
                    <TranslatedText>Evaluator</TranslatedText>
                </Description>
            </ItemDef>
            <ItemDef DataType="text" Length="50" Name="EGEVALID" OID="IT.EG.EGEVALID" def:CommentOID="COM.IT.EG.EGEVALID" xmlns:def="http://www.cdisc.org/ns/def/v2.1">
                <Description>
                    <TranslatedText>Evaluator Identifier</TranslatedText>
                </Description>
            </ItemDef>
            <ItemDef DataType="float" Name="EGREPNUM" OID="IT.EG.EGREPNUM" def:CommentOID="COM.IT.EG.EGREPNUM" xmlns:def="http://www.cdisc.org/ns/def/v2.1">
                <Description>
                    <TranslatedText>Repetition Number</TranslatedText>
                </Description>
            </ItemDef>
            <ItemDef DataType="float" Name="VISITNUM" OID="IT.EG.VISITNUM" def:CommentOID="COM.IT.EG.VISITNUM" xmlns:def="http://www.cdisc.org/ns/def/v2.1">
                <Description>
                    <TranslatedText>Visit Number</TranslatedText>
                </Description>
            </ItemDef>
            <ItemDef DataType="text" Length="50" Name="VISIT" OID="IT.EG.VISIT" def:CommentOID="COM.IT.EG.VISIT" xmlns:def="http://www.cdisc.org/ns/def/v2.1">
                <Description>
                    <TranslatedText>Visit Name</TranslatedText>
                </Description>
            </ItemDef>
            <ItemDef DataType="float" Name="VISITDY" OID="IT.EG.VISITDY" def:CommentOID="COM.IT.EG.VISITDY" xmlns:def="http://www.cdisc.org/ns/def/v2.1">
                <Description>
                    <TranslatedText>Planned Study Day of Visit</TranslatedText>
                </Description>
            </ItemDef>
            <ItemDef DataType="float" Name="TAETORD" OID="IT.EG.TAETORD" def:CommentOID="COM.IT.EG.TAETORD" xmlns:def="http://www.cdisc.org/ns/def/v2.1">
                <Description>
                    <TranslatedText>Planned Order of Element within Arm</TranslatedText>
                </Description>
            </ItemDef>
            <ItemDef DataType="text" Length="50" Name="EPOCH" OID="IT.EG.EPOCH" def:CommentOID="COM.IT.EG.EPOCH" xmlns:def="http://www.cdisc.org/ns/def/v2.1">
                <Description>
                    <TranslatedText>Epoch</TranslatedText>
                </Description>
            </ItemDef>
            <ItemDef DataType="text" Length="50" Name="EGDTC" OID="IT.EG.EGDTC" def:CommentOID="COM.IT.EG.EGDTC" xmlns:def="http://www.cdisc.org/ns/def/v2.1">
                <Description>
                    <TranslatedText>Date/Time of ECG</TranslatedText>
                </Description>
            </ItemDef>
            <ItemDef DataType="float" Name="EGDY" OID="IT.EG.EGDY" def:CommentOID="COM.IT.EG.EGDY" xmlns:def="http://www.cdisc.org/ns/def/v2.1">
                <Description>
                    <TranslatedText>Study Day of ECG</TranslatedText>
                </Description>
            </ItemDef>
            <ItemDef DataType="text" Length="50" Name="EGTPT" OID="IT.EG.EGTPT" def:CommentOID="COM.IT.EG.EGTPT" xmlns:def="http://www.cdisc.org/ns/def/v2.1">
                <Description>
                    <TranslatedText>Planned Time Point Name</TranslatedText>
                </Description>
            </ItemDef>
            <ItemDef DataType="float" Name="EGTPTNUM" OID="IT.EG.EGTPTNUM" def:CommentOID="COM.IT.EG.EGTPTNUM" xmlns:def="http://www.cdisc.org/ns/def/v2.1">
                <Description>
                    <TranslatedText>Planned Time Point Number</TranslatedText>
                </Description>
            </ItemDef>
            <ItemDef DataType="text" Length="50" Name="EGELTM" OID="IT.EG.EGELTM" def:CommentOID="COM.IT.EG.EGELTM" xmlns:def="http://www.cdisc.org/ns/def/v2.1">
                <Description>
                    <TranslatedText>Planned Elapsed Time from Time Point Ref</TranslatedText>
                </Description>
            </ItemDef>
            <ItemDef DataType="text" Length="50" Name="EGTPTREF" OID="IT.EG.EGTPTREF" def:CommentOID="COM.IT.EG.EGTPTREF" xmlns:def="http://www.cdisc.org/ns/def/v2.1">
                <Description>
                    <TranslatedText>Time Point Reference</TranslatedText>
                </Description>
            </ItemDef>
            <ItemDef DataType="text" Length="50" Name="EGRFTDTC" OID="IT.EG.EGRFTDTC" def:CommentOID="COM.IT.EG.EGRFTDTC" xmlns:def="http://www.cdisc.org/ns/def/v2.1">
                <Description>
                    <TranslatedText>Date/Time of Reference Time Point</TranslatedText>
                </Description>
            </ItemDef>
            <ItemDef DataType="text" Length="50" Name="STUDYID" OID="IT.LB.STUDYID" def:CommentOID="COM.IT.LB.STUDYID" xmlns:def="http://www.cdisc.org/ns/def/v2.1">
                <Description>
                    <TranslatedText>Study Identifier</TranslatedText>
                </Description>
            </ItemDef>
            <ItemDef DataType="text" Length="50" Name="DOMAIN" OID="IT.LB.DOMAIN" def:CommentOID="COM.IT.LB.DOMAIN" xmlns:def="http://www.cdisc.org/ns/def/v2.1">
                <Description>
                    <TranslatedText>Domain Abbreviation</TranslatedText>
                </Description>
            </ItemDef>
            <ItemDef DataType="text" Length="50" Name="USUBJID" OID="IT.LB.USUBJID" def:CommentOID="COM.IT.LB.USUBJID" xmlns:def="http://www.cdisc.org/ns/def/v2.1">
                <Description>
                    <TranslatedText>Unique Subject Identifier</TranslatedText>
                </Description>
            </ItemDef>
            <ItemDef DataType="float" Name="LBSEQ" OID="IT.LB.LBSEQ" def:CommentOID="COM.IT.LB.LBSEQ" xmlns:def="http://www.cdisc.org/ns/def/v2.1">
                <Description>
                    <TranslatedText>Sequence Number</TranslatedText>
                </Description>
            </ItemDef>
            <ItemDef DataType="text" Length="50" Name="LBGRPID" OID="IT.LB.LBGRPID" def:CommentOID="COM.IT.LB.LBGRPID" xmlns:def="http://www.cdisc.org/ns/def/v2.1">
                <Description>
                    <TranslatedText>Group ID</TranslatedText>
                </Description>
            </ItemDef>
            <ItemDef DataType="text" Length="50" Name="LBREFID" OID="IT.LB.LBREFID" def:CommentOID="COM.IT.LB.LBREFID" xmlns:def="http://www.cdisc.org/ns/def/v2.1">
                <Description>
                    <TranslatedText>Specimen ID</TranslatedText>
                </Description>
            </ItemDef>
            <ItemDef DataType="text" Length="50" Name="LBSPID" OID="IT.LB.LBSPID" def:CommentOID="COM.IT.LB.LBSPID" xmlns:def="http://www.cdisc.org/ns/def/v2.1">
                <Description>
                    <TranslatedText>Sponsor-Defined Identifier</TranslatedText>
                </Description>
            </ItemDef>
            <ItemDef DataType="text" Length="50" Name="LBTESTCD" OID="IT.LB.LBTESTCD" def:CommentOID="COM.IT.LB.LBTESTCD" xmlns:def="http://www.cdisc.org/ns/def/v2.1">
                <Description>
                    <TranslatedText>Lab Test or Examination Short Name.</TranslatedText>
                </Description>
            </ItemDef>
            <ItemDef DataType="text" Length="50" Name="LBTEST" OID="IT.LB.LBTEST" def:CommentOID="COM.IT.LB.LBTEST" xmlns:def="http://www.cdisc.org/ns/def/v2.1">
                <Description>
                    <TranslatedText>Lab Test or Examination Name</TranslatedText>
                </Description>
            </ItemDef>
            <ItemDef DataType="text" Length="50" Name="LBCAT" OID="IT.LB.LBCAT" def:CommentOID="COM.IT.LB.LBCAT" xmlns:def="http://www.cdisc.org/ns/def/v2.1">
                <Description>
                    <TranslatedText>Category for Lab Test</TranslatedText>
                </Description>
            </ItemDef>
            <ItemDef DataType="text" Length="50" Name="LBSCAT" OID="IT.LB.LBSCAT" def:CommentOID="COM.IT.LB.LBSCAT" xmlns:def="http://www.cdisc.org/ns/def/v2.1">
                <Description>
                    <TranslatedText>Subcategory for Lab Test</TranslatedText>
                </Description>
            </ItemDef>
            <ItemDef DataType="text" Length="50" Name="LBORRES" OID="IT.LB.LBORRES" def:CommentOID="COM.IT.LB.LBORRES" xmlns:def="http://www.cdisc.org/ns/def/v2.1">
                <Description>
                    <TranslatedText>Result or Finding in Original Units</TranslatedText>
                </Description>
            </ItemDef>
            <ItemDef DataType="text" Length="50" Name="LBORRESU" OID="IT.LB.LBORRESU" def:CommentOID="COM.IT.LB.LBORRESU" xmlns:def="http://www.cdisc.org/ns/def/v2.1">
                <Description>
                    <TranslatedText>Original Units</TranslatedText>
                </Description>
            </ItemDef>
            <ItemDef DataType="text" Length="50" Name="LBORNRLO" OID="IT.LB.LBORNRLO" def:CommentOID="COM.IT.LB.LBORNRLO" xmlns:def="http://www.cdisc.org/ns/def/v2.1">
                <Description>
                    <TranslatedText>Reference Range Lower Limit in Orig Unit</TranslatedText>
                </Description>
            </ItemDef>
            <ItemDef DataType="text" Length="50" Name="LBORNRHI" OID="IT.LB.LBORNRHI" def:CommentOID="COM.IT.LB.LBORNRHI" xmlns:def="http://www.cdisc.org/ns/def/v2.1">
                <Description>
                    <TranslatedText>Reference Range Upper Limit in Orig Unit</TranslatedText>
                </Description>
            </ItemDef>
            <ItemDef DataType="text" Length="50" Name="LBSTRESC" OID="IT.LB.LBSTRESC" def:CommentOID="COM.IT.LB.LBSTRESC" xmlns:def="http://www.cdisc.org/ns/def/v2.1">
                <Description>
                    <TranslatedText>Character Result/Finding in Std Format</TranslatedText>
                </Description>
            </ItemDef>
            <ItemDef DataType="float" Name="LBSTRESN" OID="IT.LB.LBSTRESN" def:CommentOID="COM.IT.LB.LBSTRESN" xmlns:def="http://www.cdisc.org/ns/def/v2.1">
                <Description>
                    <TranslatedText>Numeric Result/Finding in Standard Units</TranslatedText>
                </Description>
            </ItemDef>
            <ItemDef DataType="text" Length="50" Name="LBSTRESU" OID="IT.LB.LBSTRESU" def:CommentOID="COM.IT.LB.LBSTRESU" xmlns:def="http://www.cdisc.org/ns/def/v2.1">
                <Description>
                    <TranslatedText>Standard Units</TranslatedText>
                </Description>
            </ItemDef>
            <ItemDef DataType="float" Name="LBSTNRLO" OID="IT.LB.LBSTNRLO" def:CommentOID="COM.IT.LB.LBSTNRLO" xmlns:def="http://www.cdisc.org/ns/def/v2.1">
                <Description>
                    <TranslatedText>Reference Range Lower Limit-Std Units</TranslatedText>
                </Description>
            </ItemDef>
            <ItemDef DataType="float" Name="LBSTNRHI" OID="IT.LB.LBSTNRHI" def:CommentOID="COM.IT.LB.LBSTNRHI" xmlns:def="http://www.cdisc.org/ns/def/v2.1">
                <Description>
                    <TranslatedText>Reference Range Upper Limit-Std Units</TranslatedText>
                </Description>
            </ItemDef>
            <ItemDef DataType="text" Length="50" Name="LBSTNRC" OID="IT.LB.LBSTNRC" def:CommentOID="COM.IT.LB.LBSTNRC" xmlns:def="http://www.cdisc.org/ns/def/v2.1">
                <Description>
                    <TranslatedText>Reference Range for Char Rslt-Std Units</TranslatedText>
                </Description>
            </ItemDef>
            <ItemDef DataType="text" Length="50" Name="LBSTREFC" OID="IT.LB.LBSTREFC" def:CommentOID="COM.IT.LB.LBSTREFC" xmlns:def="http://www.cdisc.org/ns/def/v2.1">
                <Description>
                    <TranslatedText>Reference Result in Standard Format</TranslatedText>
                </Description>
            </ItemDef>
            <ItemDef DataType="text" Length="50" Name="LBNRIND" OID="IT.LB.LBNRIND" def:CommentOID="COM.IT.LB.LBNRIND" xmlns:def="http://www.cdisc.org/ns/def/v2.1">
                <Description>
                    <TranslatedText>Reference Range Indicator</TranslatedText>
                </Description>
            </ItemDef>
            <ItemDef DataType="text" Length="50" Name="LBSTAT" OID="IT.LB.LBSTAT" def:CommentOID="COM.IT.LB.LBSTAT" xmlns:def="http://www.cdisc.org/ns/def/v2.1">
                <Description>
                    <TranslatedText>Completion Status</TranslatedText>
                </Description>
            </ItemDef>
            <ItemDef DataType="text" Length="50" Name="LBREASND" OID="IT.LB.LBREASND" def:CommentOID="COM.IT.LB.LBREASND" xmlns:def="http://www.cdisc.org/ns/def/v2.1">
                <Description>
                    <TranslatedText>Reason Test Not Done</TranslatedText>
                </Description>
            </ItemDef>
            <ItemDef DataType="text" Length="50" Name="LBNAM" OID="IT.LB.LBNAM" def:CommentOID="COM.IT.LB.LBNAM" xmlns:def="http://www.cdisc.org/ns/def/v2.1">
                <Description>
                    <TranslatedText>Vendor Name</TranslatedText>
                </Description>
            </ItemDef>
            <ItemDef DataType="text" Length="50" Name="LBLOINC" OID="IT.LB.LBLOINC" def:CommentOID="COM.IT.LB.LBLOINC" xmlns:def="http://www.cdisc.org/ns/def/v2.1">
                <Description>
                    <TranslatedText>LOINC Code</TranslatedText>
                </Description>
            </ItemDef>
            <ItemDef DataType="text" Length="50" Name="LBSPEC" OID="IT.LB.LBSPEC" def:CommentOID="COM.IT.LB.LBSPEC" xmlns:def="http://www.cdisc.org/ns/def/v2.1">
                <Description>
                    <TranslatedText>Specimen Type</TranslatedText>
                </Description>
            </ItemDef>
            <ItemDef DataType="text" Length="50" Name="LBSPCCND" OID="IT.LB.LBSPCCND" def:CommentOID="COM.IT.LB.LBSPCCND" xmlns:def="http://www.cdisc.org/ns/def/v2.1">
                <Description>
                    <TranslatedText>Specimen Condition</TranslatedText>
                </Description>
            </ItemDef>
            <ItemDef DataType="text" Length="50" Name="LBMETHOD" OID="IT.LB.LBMETHOD" def:CommentOID="COM.IT.LB.LBMETHOD" xmlns:def="http://www.cdisc.org/ns/def/v2.1">
                <Description>
                    <TranslatedText>Method of Test or Examination</TranslatedText>
                </Description>
            </ItemDef>
            <ItemDef DataType="text" Length="50" Name="LBLOBXFL" OID="IT.LB.LBLOBXFL" def:CommentOID="COM.IT.LB.LBLOBXFL" xmlns:def="http://www.cdisc.org/ns/def/v2.1">
                <Description>
                    <TranslatedText>Last Observation Before Exposure Flag</TranslatedText>
                </Description>
            </ItemDef>
            <ItemDef DataType="text" Length="50" Name="LBBLFL" OID="IT.LB.LBBLFL" def:CommentOID="COM.IT.LB.LBBLFL" xmlns:def="http://www.cdisc.org/ns/def/v2.1">
                <Description>
                    <TranslatedText>Baseline Flag</TranslatedText>
                </Description>
            </ItemDef>
            <ItemDef DataType="text" Length="50" Name="LBFAST" OID="IT.LB.LBFAST" def:CommentOID="COM.IT.LB.LBFAST" xmlns:def="http://www.cdisc.org/ns/def/v2.1">
                <Description>
                    <TranslatedText>Fasting Status</TranslatedText>
                </Description>
            </ItemDef>
            <ItemDef DataType="text" Length="50" Name="LBDRVFL" OID="IT.LB.LBDRVFL" def:CommentOID="COM.IT.LB.LBDRVFL" xmlns:def="http://www.cdisc.org/ns/def/v2.1">
                <Description>
                    <TranslatedText>Derived Flag</TranslatedText>
                </Description>
            </ItemDef>
            <ItemDef DataType="text" Length="50" Name="LBTOX" OID="IT.LB.LBTOX" def:CommentOID="COM.IT.LB.LBTOX" xmlns:def="http://www.cdisc.org/ns/def/v2.1">
                <Description>
                    <TranslatedText>Toxicity</TranslatedText>
                </Description>
            </ItemDef>
            <ItemDef DataType="text" Length="50" Name="LBTOXGR" OID="IT.LB.LBTOXGR" def:CommentOID="COM.IT.LB.LBTOXGR" xmlns:def="http://www.cdisc.org/ns/def/v2.1">
                <Description>
                    <TranslatedText>Standard Toxicity Grade</TranslatedText>
                </Description>
            </ItemDef>
            <ItemDef DataType="float" Name="VISITNUM" OID="IT.LB.VISITNUM" def:CommentOID="COM.IT.LB.VISITNUM" xmlns:def="http://www.cdisc.org/ns/def/v2.1">
                <Description>
                    <TranslatedText>Visit Number</TranslatedText>
                </Description>
            </ItemDef>
            <ItemDef DataType="text" Length="50" Name="VISIT" OID="IT.LB.VISIT" def:CommentOID="COM.IT.LB.VISIT" xmlns:def="http://www.cdisc.org/ns/def/v2.1">
                <Description>
                    <TranslatedText>Visit Name</TranslatedText>
                </Description>
            </ItemDef>
            <ItemDef DataType="float" Name="VISITDY" OID="IT.LB.VISITDY" def:CommentOID="COM.IT.LB.VISITDY" xmlns:def="http://www.cdisc.org/ns/def/v2.1">
                <Description>
                    <TranslatedText>Planned Study Day of Visit</TranslatedText>
                </Description>
            </ItemDef>
            <ItemDef DataType="float" Name="TAETORD" OID="IT.LB.TAETORD" def:CommentOID="COM.IT.LB.TAETORD" xmlns:def="http://www.cdisc.org/ns/def/v2.1">
                <Description>
                    <TranslatedText>Planned Order of Element within Arm</TranslatedText>
                </Description>
            </ItemDef>
            <ItemDef DataType="text" Length="50" Name="EPOCH" OID="IT.LB.EPOCH" def:CommentOID="COM.IT.LB.EPOCH" xmlns:def="http://www.cdisc.org/ns/def/v2.1">
                <Description>
                    <TranslatedText>Epoch</TranslatedText>
                </Description>
            </ItemDef>
            <ItemDef DataType="text" Length="50" Name="LBDTC" OID="IT.LB.LBDTC" def:CommentOID="COM.IT.LB.LBDTC" xmlns:def="http://www.cdisc.org/ns/def/v2.1">
                <Description>
                    <TranslatedText>Date/Time of Specimen Collection</TranslatedText>
                </Description>
            </ItemDef>
            <ItemDef DataType="text" Length="50" Name="LBENDTC" OID="IT.LB.LBENDTC" def:CommentOID="COM.IT.LB.LBENDTC" xmlns:def="http://www.cdisc.org/ns/def/v2.1">
                <Description>
                    <TranslatedText>End Date/Time of Specimen Collection</TranslatedText>
                </Description>
            </ItemDef>
            <ItemDef DataType="float" Name="LBDY" OID="IT.LB.LBDY" def:CommentOID="COM.IT.LB.LBDY" xmlns:def="http://www.cdisc.org/ns/def/v2.1">
                <Description>
                    <TranslatedText>Study Day of Specimen Collection</TranslatedText>
                </Description>
            </ItemDef>
            <ItemDef DataType="float" Name="LBENDY" OID="IT.LB.LBENDY" def:CommentOID="COM.IT.LB.LBENDY" xmlns:def="http://www.cdisc.org/ns/def/v2.1">
                <Description>
                    <TranslatedText>Study Day of End of Observation</TranslatedText>
                </Description>
            </ItemDef>
            <ItemDef DataType="text" Length="50" Name="LBTPT" OID="IT.LB.LBTPT" def:CommentOID="COM.IT.LB.LBTPT" xmlns:def="http://www.cdisc.org/ns/def/v2.1">
                <Description>
                    <TranslatedText>Planned Time Point Name</TranslatedText>
                </Description>
            </ItemDef>
            <ItemDef DataType="float" Name="LBTPTNUM" OID="IT.LB.LBTPTNUM" def:CommentOID="COM.IT.LB.LBTPTNUM" xmlns:def="http://www.cdisc.org/ns/def/v2.1">
                <Description>
                    <TranslatedText>Planned Time Point Number</TranslatedText>
                </Description>
            </ItemDef>
            <ItemDef DataType="text" Length="50" Name="LBELTM" OID="IT.LB.LBELTM" def:CommentOID="COM.IT.LB.LBELTM" xmlns:def="http://www.cdisc.org/ns/def/v2.1">
                <Description>
                    <TranslatedText>Planned Elapsed Time from Time Point Ref</TranslatedText>
                </Description>
            </ItemDef>
            <ItemDef DataType="text" Length="50" Name="LBTPTREF" OID="IT.LB.LBTPTREF" def:CommentOID="COM.IT.LB.LBTPTREF" xmlns:def="http://www.cdisc.org/ns/def/v2.1">
                <Description>
                    <TranslatedText>Time Point Reference</TranslatedText>
                </Description>
            </ItemDef>
            <ItemDef DataType="text" Length="50" Name="LBRFTDTC" OID="IT.LB.LBRFTDTC" def:CommentOID="COM.IT.LB.LBRFTDTC" xmlns:def="http://www.cdisc.org/ns/def/v2.1">
                <Description>
                    <TranslatedText>Date/Time of Reference Time Point</TranslatedText>
                </Description>
            </ItemDef>
            <ItemDef DataType="text" Length="50" Name="STUDYID" OID="IT.SU.STUDYID" def:CommentOID="COM.IT.SU.STUDYID" xmlns:def="http://www.cdisc.org/ns/def/v2.1">
                <Description>
                    <TranslatedText>Study Identifier</TranslatedText>
                </Description>
            </ItemDef>
            <ItemDef DataType="text" Length="50" Name="DOMAIN" OID="IT.SU.DOMAIN" def:CommentOID="COM.IT.SU.DOMAIN" xmlns:def="http://www.cdisc.org/ns/def/v2.1">
                <Description>
                    <TranslatedText>Domain Abbreviation</TranslatedText>
                </Description>
            </ItemDef>
            <ItemDef DataType="text" Length="50" Name="USUBJID" OID="IT.SU.USUBJID" def:CommentOID="COM.IT.SU.USUBJID" xmlns:def="http://www.cdisc.org/ns/def/v2.1">
                <Description>
                    <TranslatedText>Unique Subject Identifier</TranslatedText>
                </Description>
            </ItemDef>
            <ItemDef DataType="float" Name="SUSEQ" OID="IT.SU.SUSEQ" def:CommentOID="COM.IT.SU.SUSEQ" xmlns:def="http://www.cdisc.org/ns/def/v2.1">
                <Description>
                    <TranslatedText>Sequence Number</TranslatedText>
                </Description>
            </ItemDef>
            <ItemDef DataType="text" Length="50" Name="SUGRPID" OID="IT.SU.SUGRPID" def:CommentOID="COM.IT.SU.SUGRPID" xmlns:def="http://www.cdisc.org/ns/def/v2.1">
                <Description>
                    <TranslatedText>Group ID</TranslatedText>
                </Description>
            </ItemDef>
            <ItemDef DataType="text" Length="50" Name="SUSPID" OID="IT.SU.SUSPID" def:CommentOID="COM.IT.SU.SUSPID" xmlns:def="http://www.cdisc.org/ns/def/v2.1">
                <Description>
                    <TranslatedText>Sponsor-Defined Identifier</TranslatedText>
                </Description>
            </ItemDef>
            <ItemDef DataType="text" Length="50" Name="SUTRT" OID="IT.SU.SUTRT" def:CommentOID="COM.IT.SU.SUTRT" xmlns:def="http://www.cdisc.org/ns/def/v2.1">
                <Description>
                    <TranslatedText>Reported Name of Substance</TranslatedText>
                </Description>
            </ItemDef>
            <ItemDef DataType="text" Length="50" Name="SUMODIFY" OID="IT.SU.SUMODIFY" def:CommentOID="COM.IT.SU.SUMODIFY" xmlns:def="http://www.cdisc.org/ns/def/v2.1">
                <Description>
                    <TranslatedText>Modified Substance Name</TranslatedText>
                </Description>
            </ItemDef>
            <ItemDef DataType="text" Length="50" Name="SUDECOD" OID="IT.SU.SUDECOD" def:CommentOID="COM.IT.SU.SUDECOD" xmlns:def="http://www.cdisc.org/ns/def/v2.1">
                <Description>
                    <TranslatedText>Standardized Substance Name</TranslatedText>
                </Description>
            </ItemDef>
            <ItemDef DataType="text" Length="50" Name="SUCAT" OID="IT.SU.SUCAT" def:CommentOID="COM.IT.SU.SUCAT" xmlns:def="http://www.cdisc.org/ns/def/v2.1">
                <Description>
                    <TranslatedText>Category for Substance Use</TranslatedText>
                </Description>
            </ItemDef>
            <ItemDef DataType="text" Length="50" Name="SUSCAT" OID="IT.SU.SUSCAT" def:CommentOID="COM.IT.SU.SUSCAT" xmlns:def="http://www.cdisc.org/ns/def/v2.1">
                <Description>
                    <TranslatedText>Subcategory for Substance Use</TranslatedText>
                </Description>
            </ItemDef>
            <ItemDef DataType="text" Length="50" Name="SUPRESP" OID="IT.SU.SUPRESP" def:CommentOID="COM.IT.SU.SUPRESP" xmlns:def="http://www.cdisc.org/ns/def/v2.1">
                <Description>
                    <TranslatedText>SU Pre-Specified</TranslatedText>
                </Description>
            </ItemDef>
            <ItemDef DataType="text" Length="50" Name="SUOCCUR" OID="IT.SU.SUOCCUR" def:CommentOID="COM.IT.SU.SUOCCUR" xmlns:def="http://www.cdisc.org/ns/def/v2.1">
                <Description>
                    <TranslatedText>SU Occurrence</TranslatedText>
                </Description>
            </ItemDef>
            <ItemDef DataType="text" Length="50" Name="SUSTAT" OID="IT.SU.SUSTAT" def:CommentOID="COM.IT.SU.SUSTAT" xmlns:def="http://www.cdisc.org/ns/def/v2.1">
                <Description>
                    <TranslatedText>Completion Status</TranslatedText>
                </Description>
            </ItemDef>
            <ItemDef DataType="text" Length="50" Name="SUREASND" OID="IT.SU.SUREASND" def:CommentOID="COM.IT.SU.SUREASND" xmlns:def="http://www.cdisc.org/ns/def/v2.1">
                <Description>
                    <TranslatedText>Reason Substance Use Not Collected</TranslatedText>
                </Description>
            </ItemDef>
            <ItemDef DataType="text" Length="50" Name="SUCLAS" OID="IT.SU.SUCLAS" def:CommentOID="COM.IT.SU.SUCLAS" xmlns:def="http://www.cdisc.org/ns/def/v2.1">
                <Description>
                    <TranslatedText>Substance Use Class</TranslatedText>
                </Description>
            </ItemDef>
            <ItemDef DataType="text" Length="50" Name="SUCLASCD" OID="IT.SU.SUCLASCD" def:CommentOID="COM.IT.SU.SUCLASCD" xmlns:def="http://www.cdisc.org/ns/def/v2.1">
                <Description>
                    <TranslatedText>Substance Use Class Code</TranslatedText>
                </Description>
            </ItemDef>
            <ItemDef DataType="float" Name="SUDOSE" OID="IT.SU.SUDOSE" def:CommentOID="COM.IT.SU.SUDOSE" xmlns:def="http://www.cdisc.org/ns/def/v2.1">
                <Description>
                    <TranslatedText>Substance Use Consumption</TranslatedText>
                </Description>
            </ItemDef>
            <ItemDef DataType="text" Length="50" Name="SUDOSTXT" OID="IT.SU.SUDOSTXT" def:CommentOID="COM.IT.SU.SUDOSTXT" xmlns:def="http://www.cdisc.org/ns/def/v2.1">
                <Description>
                    <TranslatedText>Substance Use Consumption Text</TranslatedText>
                </Description>
            </ItemDef>
            <ItemDef DataType="text" Length="50" Name="SUDOSU" OID="IT.SU.SUDOSU" def:CommentOID="COM.IT.SU.SUDOSU" xmlns:def="http://www.cdisc.org/ns/def/v2.1">
                <Description>
                    <TranslatedText>Consumption Units</TranslatedText>
                </Description>
            </ItemDef>
            <ItemDef DataType="text" Length="50" Name="SUDOSFRM" OID="IT.SU.SUDOSFRM" def:CommentOID="COM.IT.SU.SUDOSFRM" xmlns:def="http://www.cdisc.org/ns/def/v2.1">
                <Description>
                    <TranslatedText>Dose Form</TranslatedText>
                </Description>
            </ItemDef>
            <ItemDef DataType="text" Length="50" Name="SUDOSFRQ" OID="IT.SU.SUDOSFRQ" def:CommentOID="COM.IT.SU.SUDOSFRQ" xmlns:def="http://www.cdisc.org/ns/def/v2.1">
                <Description>
                    <TranslatedText>Use Frequency Per Interval</TranslatedText>
                </Description>
            </ItemDef>
            <ItemDef DataType="float" Name="SUDOSTOT" OID="IT.SU.SUDOSTOT" def:CommentOID="COM.IT.SU.SUDOSTOT" xmlns:def="http://www.cdisc.org/ns/def/v2.1">
                <Description>
                    <TranslatedText>Total Daily Consumption</TranslatedText>
                </Description>
            </ItemDef>
            <ItemDef DataType="text" Length="50" Name="SUROUTE" OID="IT.SU.SUROUTE" def:CommentOID="COM.IT.SU.SUROUTE" xmlns:def="http://www.cdisc.org/ns/def/v2.1">
                <Description>
                    <TranslatedText>Route of Administration</TranslatedText>
                </Description>
            </ItemDef>
            <ItemDef DataType="float" Name="TAETORD" OID="IT.SU.TAETORD" def:CommentOID="COM.IT.SU.TAETORD" xmlns:def="http://www.cdisc.org/ns/def/v2.1">
                <Description>
                    <TranslatedText>Planned Order of Element within Arm</TranslatedText>
                </Description>
            </ItemDef>
            <ItemDef DataType="text" Length="50" Name="EPOCH" OID="IT.SU.EPOCH" def:CommentOID="COM.IT.SU.EPOCH" xmlns:def="http://www.cdisc.org/ns/def/v2.1">
                <Description>
                    <TranslatedText>Epoch</TranslatedText>
                </Description>
            </ItemDef>
            <ItemDef DataType="text" Length="50" Name="SUSTDTC" OID="IT.SU.SUSTDTC" def:CommentOID="COM.IT.SU.SUSTDTC" xmlns:def="http://www.cdisc.org/ns/def/v2.1">
                <Description>
                    <TranslatedText>Start Date/Time of Substance Use</TranslatedText>
                </Description>
            </ItemDef>
            <ItemDef DataType="text" Length="50" Name="SUENDTC" OID="IT.SU.SUENDTC" def:CommentOID="COM.IT.SU.SUENDTC" xmlns:def="http://www.cdisc.org/ns/def/v2.1">
                <Description>
                    <TranslatedText>End Date/Time of Substance Use</TranslatedText>
                </Description>
            </ItemDef>
            <ItemDef DataType="float" Name="SUSTDY" OID="IT.SU.SUSTDY" def:CommentOID="COM.IT.SU.SUSTDY" xmlns:def="http://www.cdisc.org/ns/def/v2.1">
                <Description>
                    <TranslatedText>Study Day of Start of Substance Use</TranslatedText>
                </Description>
            </ItemDef>
            <ItemDef DataType="float" Name="SUENDY" OID="IT.SU.SUENDY" def:CommentOID="COM.IT.SU.SUENDY" xmlns:def="http://www.cdisc.org/ns/def/v2.1">
                <Description>
                    <TranslatedText>Study Day of End of Substance Use</TranslatedText>
                </Description>
            </ItemDef>
            <ItemDef DataType="text" Length="50" Name="SUDUR" OID="IT.SU.SUDUR" def:CommentOID="COM.IT.SU.SUDUR" xmlns:def="http://www.cdisc.org/ns/def/v2.1">
                <Description>
                    <TranslatedText>Duration of Substance Use</TranslatedText>
                </Description>
            </ItemDef>
            <ItemDef DataType="text" Length="50" Name="SUSTRF" OID="IT.SU.SUSTRF" def:CommentOID="COM.IT.SU.SUSTRF" xmlns:def="http://www.cdisc.org/ns/def/v2.1">
                <Description>
                    <TranslatedText>Start Relative to Reference Period</TranslatedText>
                </Description>
            </ItemDef>
            <ItemDef DataType="text" Length="50" Name="SUENRF" OID="IT.SU.SUENRF" def:CommentOID="COM.IT.SU.SUENRF" xmlns:def="http://www.cdisc.org/ns/def/v2.1">
                <Description>
                    <TranslatedText>End Relative to Reference Period</TranslatedText>
                </Description>
            </ItemDef>
            <ItemDef DataType="text" Length="50" Name="SUSTRTPT" OID="IT.SU.SUSTRTPT" def:CommentOID="COM.IT.SU.SUSTRTPT" xmlns:def="http://www.cdisc.org/ns/def/v2.1">
                <Description>
                    <TranslatedText>Start Relative to Reference Time Point</TranslatedText>
                </Description>
            </ItemDef>
            <ItemDef DataType="text" Length="50" Name="SUSTTPT" OID="IT.SU.SUSTTPT" def:CommentOID="COM.IT.SU.SUSTTPT" xmlns:def="http://www.cdisc.org/ns/def/v2.1">
                <Description>
                    <TranslatedText>Start Reference Time Point</TranslatedText>
                </Description>
            </ItemDef>
            <ItemDef DataType="text" Length="50" Name="SUENRTPT" OID="IT.SU.SUENRTPT" def:CommentOID="COM.IT.SU.SUENRTPT" xmlns:def="http://www.cdisc.org/ns/def/v2.1">
                <Description>
                    <TranslatedText>End Relative to Reference Time Point</TranslatedText>
                </Description>
            </ItemDef>
            <ItemDef DataType="text" Length="50" Name="SUENTPT" OID="IT.SU.SUENTPT" def:CommentOID="COM.IT.SU.SUENTPT" xmlns:def="http://www.cdisc.org/ns/def/v2.1">
                <Description>
                    <TranslatedText>End Reference Time Point</TranslatedText>
                </Description>
            </ItemDef>
            <ItemDef DataType="text" Length="50" Name="STUDYID" OID="IT.VS.STUDYID" def:CommentOID="COM.IT.VS.STUDYID" xmlns:def="http://www.cdisc.org/ns/def/v2.1">
                <Description>
                    <TranslatedText>Study Identifier</TranslatedText>
                </Description>
            </ItemDef>
            <ItemDef DataType="text" Length="50" Name="DOMAIN" OID="IT.VS.DOMAIN" def:CommentOID="COM.IT.VS.DOMAIN" xmlns:def="http://www.cdisc.org/ns/def/v2.1">
                <Description>
                    <TranslatedText>Domain Abbreviation</TranslatedText>
                </Description>
            </ItemDef>
            <ItemDef DataType="text" Length="50" Name="USUBJID" OID="IT.VS.USUBJID" def:CommentOID="COM.IT.VS.USUBJID" xmlns:def="http://www.cdisc.org/ns/def/v2.1">
                <Description>
                    <TranslatedText>Unique Subject Identifier</TranslatedText>
                </Description>
            </ItemDef>
            <ItemDef DataType="float" Name="VSSEQ" OID="IT.VS.VSSEQ" def:CommentOID="COM.IT.VS.VSSEQ" xmlns:def="http://www.cdisc.org/ns/def/v2.1">
                <Description>
                    <TranslatedText>Sequence Number</TranslatedText>
                </Description>
            </ItemDef>
            <ItemDef DataType="text" Length="50" Name="VSGRPID" OID="IT.VS.VSGRPID" def:CommentOID="COM.IT.VS.VSGRPID" xmlns:def="http://www.cdisc.org/ns/def/v2.1">
                <Description>
                    <TranslatedText>Group ID</TranslatedText>
                </Description>
            </ItemDef>
            <ItemDef DataType="text" Length="50" Name="VSSPID" OID="IT.VS.VSSPID" def:CommentOID="COM.IT.VS.VSSPID" xmlns:def="http://www.cdisc.org/ns/def/v2.1">
                <Description>
                    <TranslatedText>Sponsor-Defined Identifier</TranslatedText>
                </Description>
            </ItemDef>
            <ItemDef DataType="text" Length="50" Name="VSTESTCD" OID="IT.VS.VSTESTCD" def:CommentOID="COM.IT.VS.VSTESTCD" xmlns:def="http://www.cdisc.org/ns/def/v2.1">
                <Description>
                    <TranslatedText>Vital Signs Test Short Name</TranslatedText>
                </Description>
            </ItemDef>
            <ItemDef DataType="text" Length="50" Name="VSTEST" OID="IT.VS.VSTEST" def:CommentOID="COM.IT.VS.VSTEST" xmlns:def="http://www.cdisc.org/ns/def/v2.1">
                <Description>
                    <TranslatedText>Vital Signs Test Name</TranslatedText>
                </Description>
            </ItemDef>
            <ItemDef DataType="text" Length="50" Name="VSCAT" OID="IT.VS.VSCAT" def:CommentOID="COM.IT.VS.VSCAT" xmlns:def="http://www.cdisc.org/ns/def/v2.1">
                <Description>
                    <TranslatedText>Category for Vital Signs</TranslatedText>
                </Description>
            </ItemDef>
            <ItemDef DataType="text" Length="50" Name="VSSCAT" OID="IT.VS.VSSCAT" def:CommentOID="COM.IT.VS.VSSCAT" xmlns:def="http://www.cdisc.org/ns/def/v2.1">
                <Description>
                    <TranslatedText>Subcategory for Vital Signs</TranslatedText>
                </Description>
            </ItemDef>
            <ItemDef DataType="text" Length="50" Name="VSPOS" OID="IT.VS.VSPOS" def:CommentOID="COM.IT.VS.VSPOS" xmlns:def="http://www.cdisc.org/ns/def/v2.1">
                <Description>
                    <TranslatedText>Vital Signs Position of Subject</TranslatedText>
                </Description>
            </ItemDef>
            <ItemDef DataType="text" Length="50" Name="VSORRES" OID="IT.VS.VSORRES" def:CommentOID="COM.IT.VS.VSORRES" xmlns:def="http://www.cdisc.org/ns/def/v2.1">
                <Description>
                    <TranslatedText>Result or Finding in Original Units</TranslatedText>
                </Description>
            </ItemDef>
            <ItemDef DataType="text" Length="50" Name="VSORRESU" OID="IT.VS.VSORRESU" def:CommentOID="COM.IT.VS.VSORRESU" xmlns:def="http://www.cdisc.org/ns/def/v2.1">
                <Description>
                    <TranslatedText>Original Units</TranslatedText>
                </Description>
            </ItemDef>
            <ItemDef DataType="text" Length="50" Name="VSSTRESC" OID="IT.VS.VSSTRESC" def:CommentOID="COM.IT.VS.VSSTRESC" xmlns:def="http://www.cdisc.org/ns/def/v2.1">
                <Description>
                    <TranslatedText>Character Result/Finding in Std Format</TranslatedText>
                </Description>
            </ItemDef>
            <ItemDef DataType="float" Name="VSSTRESN" OID="IT.VS.VSSTRESN" def:CommentOID="COM.IT.VS.VSSTRESN" xmlns:def="http://www.cdisc.org/ns/def/v2.1">
                <Description>
                    <TranslatedText>Numeric Result/Finding in Standard Units</TranslatedText>
                </Description>
            </ItemDef>
            <ItemDef DataType="text" Length="50" Name="VSSTRESU" OID="IT.VS.VSSTRESU" def:CommentOID="COM.IT.VS.VSSTRESU" xmlns:def="http://www.cdisc.org/ns/def/v2.1">
                <Description>
                    <TranslatedText>Standard Units</TranslatedText>
                </Description>
            </ItemDef>
            <ItemDef DataType="text" Length="50" Name="VSSTAT" OID="IT.VS.VSSTAT" def:CommentOID="COM.IT.VS.VSSTAT" xmlns:def="http://www.cdisc.org/ns/def/v2.1">
                <Description>
                    <TranslatedText>Completion Status</TranslatedText>
                </Description>
            </ItemDef>
            <ItemDef DataType="text" Length="50" Name="VSREASND" OID="IT.VS.VSREASND" def:CommentOID="COM.IT.VS.VSREASND" xmlns:def="http://www.cdisc.org/ns/def/v2.1">
                <Description>
                    <TranslatedText>Reason Not Performed</TranslatedText>
                </Description>
            </ItemDef>
            <ItemDef DataType="text" Length="50" Name="VSLOC" OID="IT.VS.VSLOC" def:CommentOID="COM.IT.VS.VSLOC" xmlns:def="http://www.cdisc.org/ns/def/v2.1">
                <Description>
                    <TranslatedText>Location of Vital Signs Measurement</TranslatedText>
                </Description>
            </ItemDef>
            <ItemDef DataType="text" Length="50" Name="VSLAT" OID="IT.VS.VSLAT" def:CommentOID="COM.IT.VS.VSLAT" xmlns:def="http://www.cdisc.org/ns/def/v2.1">
                <Description>
                    <TranslatedText>Laterality</TranslatedText>
                </Description>
            </ItemDef>
            <ItemDef DataType="text" Length="50" Name="VSLOBXFL" OID="IT.VS.VSLOBXFL" def:CommentOID="COM.IT.VS.VSLOBXFL" xmlns:def="http://www.cdisc.org/ns/def/v2.1">
                <Description>
                    <TranslatedText>Last Observation Before Exposure Flag</TranslatedText>
                </Description>
            </ItemDef>
            <ItemDef DataType="text" Length="50" Name="VSBLFL" OID="IT.VS.VSBLFL" def:CommentOID="COM.IT.VS.VSBLFL" xmlns:def="http://www.cdisc.org/ns/def/v2.1">
                <Description>
                    <TranslatedText>Baseline Flag</TranslatedText>
                </Description>
            </ItemDef>
            <ItemDef DataType="text" Length="50" Name="VSDRVFL" OID="IT.VS.VSDRVFL" def:CommentOID="COM.IT.VS.VSDRVFL" xmlns:def="http://www.cdisc.org/ns/def/v2.1">
                <Description>
                    <TranslatedText>Derived Flag</TranslatedText>
                </Description>
            </ItemDef>
            <ItemDef DataType="float" Name="VISITNUM" OID="IT.VS.VISITNUM" def:CommentOID="COM.IT.VS.VISITNUM" xmlns:def="http://www.cdisc.org/ns/def/v2.1">
                <Description>
                    <TranslatedText>Visit Number</TranslatedText>
                </Description>
            </ItemDef>
            <ItemDef DataType="text" Length="50" Name="VISIT" OID="IT.VS.VISIT" def:CommentOID="COM.IT.VS.VISIT" xmlns:def="http://www.cdisc.org/ns/def/v2.1">
                <Description>
                    <TranslatedText>Visit Name</TranslatedText>
                </Description>
            </ItemDef>
            <ItemDef DataType="float" Name="VISITDY" OID="IT.VS.VISITDY" def:CommentOID="COM.IT.VS.VISITDY" xmlns:def="http://www.cdisc.org/ns/def/v2.1">
                <Description>
                    <TranslatedText>Planned Study Day of Visit</TranslatedText>
                </Description>
            </ItemDef>
            <ItemDef DataType="float" Name="TAETORD" OID="IT.VS.TAETORD" def:CommentOID="COM.IT.VS.TAETORD" xmlns:def="http://www.cdisc.org/ns/def/v2.1">
                <Description>
                    <TranslatedText>Planned Order of Element within Arm</TranslatedText>
                </Description>
            </ItemDef>
            <ItemDef DataType="text" Length="50" Name="EPOCH" OID="IT.VS.EPOCH" def:CommentOID="COM.IT.VS.EPOCH" xmlns:def="http://www.cdisc.org/ns/def/v2.1">
                <Description>
                    <TranslatedText>Epoch</TranslatedText>
                </Description>
            </ItemDef>
            <ItemDef DataType="text" Length="50" Name="VSDTC" OID="IT.VS.VSDTC" def:CommentOID="COM.IT.VS.VSDTC" xmlns:def="http://www.cdisc.org/ns/def/v2.1">
                <Description>
                    <TranslatedText>Date/Time of Measurements</TranslatedText>
                </Description>
            </ItemDef>
            <ItemDef DataType="float" Name="VSDY" OID="IT.VS.VSDY" def:CommentOID="COM.IT.VS.VSDY" xmlns:def="http://www.cdisc.org/ns/def/v2.1">
                <Description>
                    <TranslatedText>Study Day of Vital Signs</TranslatedText>
                </Description>
            </ItemDef>
            <ItemDef DataType="text" Length="50" Name="VSTPT" OID="IT.VS.VSTPT" def:CommentOID="COM.IT.VS.VSTPT" xmlns:def="http://www.cdisc.org/ns/def/v2.1">
                <Description>
                    <TranslatedText>Planned Time Point Name</TranslatedText>
                </Description>
            </ItemDef>
            <ItemDef DataType="float" Name="VSTPTNUM" OID="IT.VS.VSTPTNUM" def:CommentOID="COM.IT.VS.VSTPTNUM" xmlns:def="http://www.cdisc.org/ns/def/v2.1">
                <Description>
                    <TranslatedText>Planned Time Point Number</TranslatedText>
                </Description>
            </ItemDef>
            <ItemDef DataType="text" Length="50" Name="VSELTM" OID="IT.VS.VSELTM" def:CommentOID="COM.IT.VS.VSELTM" xmlns:def="http://www.cdisc.org/ns/def/v2.1">
                <Description>
                    <TranslatedText>Planned Elapsed Time from Time Point Ref</TranslatedText>
                </Description>
            </ItemDef>
            <ItemDef DataType="text" Length="50" Name="VSTPTREF" OID="IT.VS.VSTPTREF" def:CommentOID="COM.IT.VS.VSTPTREF" xmlns:def="http://www.cdisc.org/ns/def/v2.1">
                <Description>
                    <TranslatedText>Time Point Reference</TranslatedText>
                </Description>
            </ItemDef>
            <ItemDef DataType="text" Length="50" Name="VSRFTDTC" OID="IT.VS.VSRFTDTC" def:CommentOID="COM.IT.VS.VSRFTDTC" xmlns:def="http://www.cdisc.org/ns/def/v2.1">
                <Description>
                    <TranslatedText>Date/Time of Reference Time Point</TranslatedText>
                </Description>
            </ItemDef>
            <def:CommentDef OID="COM.IT.DM.STUDYID" xmlns:def="http://www.cdisc.org/ns/def/v2.1">
                <Description>
                    <TranslatedText>Unique identifier for a study.</TranslatedText>
                </Description>
            </def:CommentDef>
            <def:CommentDef OID="COM.IT.DM.DOMAIN" xmlns:def="http://www.cdisc.org/ns/def/v2.1">
                <Description>
                    <TranslatedText>Two-character abbreviation for the domain.</TranslatedText>
                </Description>
            </def:CommentDef>
            <def:CommentDef OID="COM.IT.DM.USUBJID" xmlns:def="http://www.cdisc.org/ns/def/v2.1">
                <Description>
                    <TranslatedText>Identifier used to uniquely identify a subject across all studies for all applications or submissions involving the product. This must be a unique number, and could be a compound identifier formed by concatenating STUDYID-SITEID-SUBJID.</TranslatedText>
                </Description>
            </def:CommentDef>
            <def:CommentDef OID="COM.IT.DM.SUBJID" xmlns:def="http://www.cdisc.org/ns/def/v2.1">
                <Description>
                    <TranslatedText>Subject identifier, which must be unique within the study. Often the ID of the subject as recorded on a CRF.</TranslatedText>
                </Description>
            </def:CommentDef>
            <def:CommentDef OID="COM.IT.DM.RFSTDTC" xmlns:def="http://www.cdisc.org/ns/def/v2.1">
                <Description>
                    <TranslatedText>Reference Start Date/time for the subject in ISO 8601 character format. Usually equivalent to date/time when subject was first exposed to study treatment. See Assumption 9 for additional detail on when RFSTDTC may be null.</TranslatedText>
                </Description>
            </def:CommentDef>
            <def:CommentDef OID="COM.IT.DM.RFENDTC" xmlns:def="http://www.cdisc.org/ns/def/v2.1">
                <Description>
                    <TranslatedText>Reference End Date/time for the subject in ISO 8601 character format. Usually equivalent to the date/time when subject was determined to have ended the trial, and often equivalent to date/time of last exposure to study treatment. Required for all randomized subjects; null for screen failures or unassigned subjects.</TranslatedText>
                </Description>
            </def:CommentDef>
            <def:CommentDef OID="COM.IT.DM.RFXSTDTC" xmlns:def="http://www.cdisc.org/ns/def/v2.1">
                <Description>
                    <TranslatedText>First date/time of exposure to any protocol-specified treatment or therapy, equal to the earliest value of EXSTDTC.</TranslatedText>
                </Description>
            </def:CommentDef>
            <def:CommentDef OID="COM.IT.DM.RFXENDTC" xmlns:def="http://www.cdisc.org/ns/def/v2.1">
                <Description>
                    <TranslatedText>Last date/time of exposure to any protocol-specified treatment or therapy, equal to the latest value of EXENDTC (or the latest value of EXSTDTC if EXENDTC was not collected or is missing).</TranslatedText>
                </Description>
            </def:CommentDef>
            <def:CommentDef OID="COM.IT.DM.RFICDTC" xmlns:def="http://www.cdisc.org/ns/def/v2.1">
                <Description>
                    <TranslatedText>Date/time of informed consent in ISO 8601 character format. This will be the same as the date of informed consent in the Disposition domain, if that protocol milestone is documented. Would be null only in studies not collecting the date of informed consent.</TranslatedText>
                </Description>
            </def:CommentDef>
            <def:CommentDef OID="COM.IT.DM.RFPENDTC" xmlns:def="http://www.cdisc.org/ns/def/v2.1">
                <Description>
                    <TranslatedText>Date/time when subject ended participation or follow-up in a trial, as defined in the protocol, in ISO 8601 character format. Should correspond to the last known date of contact. Examples include completion date, withdrawal date, last follow-up, date recorded for lost to follow up, or death date.</TranslatedText>
                </Description>
            </def:CommentDef>
            <def:CommentDef OID="COM.IT.DM.DTHDTC" xmlns:def="http://www.cdisc.org/ns/def/v2.1">
                <Description>
                    <TranslatedText>Date/time of death for any subject who died, in ISO 8601 format. Should represent the date/time that is captured in the clinical-trial database.</TranslatedText>
                </Description>
            </def:CommentDef>
            <def:CommentDef OID="COM.IT.DM.DTHFL" xmlns:def="http://www.cdisc.org/ns/def/v2.1">
                <Description>
                    <TranslatedText>Indicates the subject died. Should be &quot;Y&quot; or null. Should be populated even when the death date is unknown.</TranslatedText>
                </Description>
            </def:CommentDef>
            <def:CommentDef OID="COM.IT.DM.SITEID" xmlns:def="http://www.cdisc.org/ns/def/v2.1">
                <Description>
                    <TranslatedText>Unique identifier for a site within a study.</TranslatedText>
                </Description>
            </def:CommentDef>
            <def:CommentDef OID="COM.IT.DM.INVID" xmlns:def="http://www.cdisc.org/ns/def/v2.1">
                <Description>
                    <TranslatedText>An identifier to describe the Investigator for the study. May be used in addition to SITEID. Not needed if SITEID is equivalent to INVID.</TranslatedText>
                </Description>
            </def:CommentDef>
            <def:CommentDef OID="COM.IT.DM.INVNAM" xmlns:def="http://www.cdisc.org/ns/def/v2.1">
                <Description>
                    <TranslatedText>Name of the investigator for a site.</TranslatedText>
                </Description>
            </def:CommentDef>
            <def:CommentDef OID="COM.IT.DM.BRTHDTC" xmlns:def="http://www.cdisc.org/ns/def/v2.1">
                <Description>
                    <TranslatedText>Date/time of birth of the subject.</TranslatedText>
                </Description>
            </def:CommentDef>
            <def:CommentDef OID="COM.IT.DM.AGE" xmlns:def="http://www.cdisc.org/ns/def/v2.1">
                <Description>
                    <TranslatedText>Age expressed in AGEU. May be derived from RFSTDTC and BRTHDTC, but BRTHDTC may not be available in all cases (due to subject privacy concerns).</TranslatedText>
                </Description>
            </def:CommentDef>
            <def:CommentDef OID="COM.IT.DM.AGEU" xmlns:def="http://www.cdisc.org/ns/def/v2.1">
                <Description>
                    <TranslatedText>Units associated with AGE.</TranslatedText>
                </Description>
            </def:CommentDef>
            <def:CommentDef OID="COM.IT.DM.SEX" xmlns:def="http://www.cdisc.org/ns/def/v2.1">
                <Description>
                    <TranslatedText>Sex of the subject.</TranslatedText>
                </Description>
            </def:CommentDef>
            <def:CommentDef OID="COM.IT.DM.RACE" xmlns:def="http://www.cdisc.org/ns/def/v2.1">
                <Description>
                    <TranslatedText>Race of the subject. Sponsors should refer to &quot;Collection of Race and Ethnicity Data in Clinical Trials&quot; (FDA, October, 2016) for guidance regarding the collection of race (https://www.fda.gov/downloads/regulatoryinformation/guidances/ucm126396.pdf) See Assumption below regarding RACE.</TranslatedText>
                </Description>
            </def:CommentDef>
            <def:CommentDef OID="COM.IT.DM.ETHNIC" xmlns:def="http://www.cdisc.org/ns/def/v2.1">
                <Description>
                    <TranslatedText>The ethnicity of the subject. Sponsors should refer to &quot;Collection of Race and Ethnicity Data in Clinical Trials&quot; (FDA, October, 2016) for guidance regarding the collection of ethnicity (https://www.fda.gov/downloads/regulatoryinformation/guidances/ucm126396.pdf).</TranslatedText>
                </Description>
            </def:CommentDef>
            <def:CommentDef OID="COM.IT.DM.ARMCD" xmlns:def="http://www.cdisc.org/ns/def/v2.1">
                <Description>
                    <TranslatedText>ARMCD is limited to 20 characters. It is not subject to the character restrictions that apply to TESTCD.The maximum length of ARMCD is longer than for other &quot;short&quot; variables to accommodate the kind of values that are likely to be needed for crossover trials. For example, if ARMCD values for a seven-period crossover were constructed using two-character abbreviations for each treatment and separating hyphens, the length of ARMCD values would be 20. If the subject was not assigned to an Arm, ARMCD is null and ARMNRS is populated.
With the exception of studies which use multi-stage Arm assignments, must be a value of ARMCD in the Trial Arms Dataset.</TranslatedText>
                </Description>
            </def:CommentDef>
            <def:CommentDef OID="COM.IT.DM.ARM" xmlns:def="http://www.cdisc.org/ns/def/v2.1">
                <Description>
                    <TranslatedText>Name of the Arm to which the subject was assigned. If the subject was not assigned to an Arm, ARM is null and ARMNRS is populated.
With the exception of studies which use multi-stage Arm assignments, must be a value of ARM in the Trial Arms Dataset.</TranslatedText>
                </Description>
            </def:CommentDef>
            <def:CommentDef OID="COM.IT.DM.ACTARMCD" xmlns:def="http://www.cdisc.org/ns/def/v2.1">
                <Description>
                    <TranslatedText>Code of actual Arm. ACTARMCD is limited to 20 characters. It is not subject to the character restrictions that apply to TESTCD. The maximum length of ACTARMCD is longer than for other short variables to accommodate the kind of values that are likely to be needed for crossover trials.
With the exception of studies which use multi-stage Arm assignments, must be a value of ARMCD in the Trial Arms Dataset.
If the subject was not assigned to an Arm or followed a course not described by any planned Arm, ACTARMCD is null and ARMNRS is populated.</TranslatedText>
                </Description>
            </def:CommentDef>
            <def:CommentDef OID="COM.IT.DM.ACTARM" xmlns:def="http://www.cdisc.org/ns/def/v2.1">
                <Description>
                    <TranslatedText>Description of actual Arm.
With the exception of studies which use multi-stage Arm assignments, must be a value of ARM in the Trial Arms Dataset.
If the subject was not assigned to an Arm or followed a course not described by any planned Arm, ACTARM is null and ARMNRS is populated.</TranslatedText>
                </Description>
            </def:CommentDef>
            <def:CommentDef OID="COM.IT.DM.ARMNRS" xmlns:def="http://www.cdisc.org/ns/def/v2.1">
                <Description>
                    <TranslatedText>A coded reason that Arm variables (ARM and ARMCD) and/or actual Arm variables (ACTARM and ACTARMCD) are null. Examples: &quot;SCREEN FAILURE&quot;, &quot;NOT ASSIGNED&quot;, &quot;ASSIGNED, NOT TREATED&quot;, &quot;UNPLANNED TREATMENT&quot;. It is assumed that if the Arm and actual Arm variables are null, the same reason applies to both Arm and actual Arm.</TranslatedText>
                </Description>
            </def:CommentDef>
            <def:CommentDef OID="COM.IT.DM.ACTARMUD" xmlns:def="http://www.cdisc.org/ns/def/v2.1">
                <Description>
                    <TranslatedText>A description of actual treatment for a subject who did not receive treatment described in one of the planned trial Arms.</TranslatedText>
                </Description>
            </def:CommentDef>
            <def:CommentDef OID="COM.IT.DM.COUNTRY" xmlns:def="http://www.cdisc.org/ns/def/v2.1">
                <Description>
                    <TranslatedText>Country of the investigational site in which the subject participated in the trial.</TranslatedText>
                </Description>
            </def:CommentDef>
            <def:CommentDef OID="COM.IT.DM.DMDTC" xmlns:def="http://www.cdisc.org/ns/def/v2.1">
                <Description>
                    <TranslatedText>Date/time of demographic data collection.</TranslatedText>
                </Description>
            </def:CommentDef>
            <def:CommentDef OID="COM.IT.DM.DMDY" xmlns:def="http://www.cdisc.org/ns/def/v2.1">
                <Description>
                    <TranslatedText>Study day of collection measured as integer days.</TranslatedText>
                </Description>
            </def:CommentDef>
            <def:CommentDef OID="COM.IT.DS.STUDYID" xmlns:def="http://www.cdisc.org/ns/def/v2.1">
                <Description>
                    <TranslatedText>Unique identifier for a study.</TranslatedText>
                </Description>
            </def:CommentDef>
            <def:CommentDef OID="COM.IT.DS.DOMAIN" xmlns:def="http://www.cdisc.org/ns/def/v2.1">
                <Description>
                    <TranslatedText>Two-character abbreviation for the domain.</TranslatedText>
                </Description>
            </def:CommentDef>
            <def:CommentDef OID="COM.IT.DS.USUBJID" xmlns:def="http://www.cdisc.org/ns/def/v2.1">
                <Description>
                    <TranslatedText>Identifier used to uniquely identify a subject across all studies for all applications or submissions involving the product.</TranslatedText>
                </Description>
            </def:CommentDef>
            <def:CommentDef OID="COM.IT.DS.DSSEQ" xmlns:def="http://www.cdisc.org/ns/def/v2.1">
                <Description>
                    <TranslatedText>Sequence Number given to ensure uniqueness of subject records within a domain. May be any valid number.</TranslatedText>
                </Description>
            </def:CommentDef>
            <def:CommentDef OID="COM.IT.DS.DSGRPID" xmlns:def="http://www.cdisc.org/ns/def/v2.1">
                <Description>
                    <TranslatedText>Used to tie together a block of related records in a single domain for a subject.</TranslatedText>
                </Description>
            </def:CommentDef>
            <def:CommentDef OID="COM.IT.DS.DSREFID" xmlns:def="http://www.cdisc.org/ns/def/v2.1">
                <Description>
                    <TranslatedText>Internal or external identifier.</TranslatedText>
                </Description>
            </def:CommentDef>
            <def:CommentDef OID="COM.IT.DS.DSSPID" xmlns:def="http://www.cdisc.org/ns/def/v2.1">
                <Description>
                    <TranslatedText>Sponsor-defined reference number. Perhaps preprinted on the CRF as an explicit line identifier or defined in the sponsor's operational database. Example: Line number on a Disposition page.</TranslatedText>
                </Description>
            </def:CommentDef>
            <def:CommentDef OID="COM.IT.DS.DSTERM" xmlns:def="http://www.cdisc.org/ns/def/v2.1">
                <Description>
                    <TranslatedText>Verbatim name of the event or protocol milestone. Some terms in DSTERM will match DSDECOD, but others, such as &quot;Subject moved&quot; will map to controlled terminology in DSDECOD, such as &quot;LOST TO FOLLOW-UP&quot;.</TranslatedText>
                </Description>
            </def:CommentDef>
            <def:CommentDef OID="COM.IT.DS.DSDECOD" xmlns:def="http://www.cdisc.org/ns/def/v2.1">
                <Description>
                    <TranslatedText>Controlled terminology for the name of disposition event or protocol milestone. Examples of protocol milestones: &quot;INFORMED CONSENT OBTAINED&quot;, &quot;RANDOMIZED&quot;. There are separate codelists used for DSDECOD where the choice depends on the value of DSCAT. Codelist &quot;NCOMPLT&quot; is used for disposition events and codelist &quot;PROTMLST&quot; is used for protocol milestones. The variable may be subject to controlled terminology for other events.</TranslatedText>
                </Description>
            </def:CommentDef>
            <def:CommentDef OID="COM.IT.DS.DSCAT" xmlns:def="http://www.cdisc.org/ns/def/v2.1">
                <Description>
                    <TranslatedText>Used to define a category of related records.</TranslatedText>
                </Description>
            </def:CommentDef>
            <def:CommentDef OID="COM.IT.DS.DSSCAT" xmlns:def="http://www.cdisc.org/ns/def/v2.1">
                <Description>
                    <TranslatedText>A further categorization of DSCAT (e.g., &quot;STUDY PARTICIPATION&quot;, &quot;STUDY TREATMENT&quot; when DSCAT = &quot;DISPOSITION EVENT&quot;).</TranslatedText>
                </Description>
            </def:CommentDef>
            <def:CommentDef OID="COM.IT.DS.EPOCH" xmlns:def="http://www.cdisc.org/ns/def/v2.1">
                <Description>
                    <TranslatedText>Epoch associated with the start date/time of the event.</TranslatedText>
                </Description>
            </def:CommentDef>
            <def:CommentDef OID="COM.IT.DS.DSDTC" xmlns:def="http://www.cdisc.org/ns/def/v2.1">
                <Description>
                    <TranslatedText>Collection date and time of the disposition observation represented in ISO 8601 character format.</TranslatedText>
                </Description>
            </def:CommentDef>
            <def:CommentDef OID="COM.IT.DS.DSSTDTC" xmlns:def="http://www.cdisc.org/ns/def/v2.1">
                <Description>
                    <TranslatedText>Start date/time of the disposition event in ISO 8601 character format.</TranslatedText>
                </Description>
            </def:CommentDef>
            <def:CommentDef OID="COM.IT.DS.DSDY" xmlns:def="http://www.cdisc.org/ns/def/v2.1">
                <Description>
                    <TranslatedText>Start date/time of the disposition event in ISO 8601 character format.</TranslatedText>
                </Description>
            </def:CommentDef>
            <def:CommentDef OID="COM.IT.DS.DSSTDY" xmlns:def="http://www.cdisc.org/ns/def/v2.1">
                <Description>
                    <TranslatedText>Study day of start of event relative to the sponsor-defined RFSTDTC.</TranslatedText>
                </Description>
            </def:CommentDef>
            <def:CommentDef OID="COM.IT.EX.STUDYID" xmlns:def="http://www.cdisc.org/ns/def/v2.1">
                <Description>
                    <TranslatedText>Unique identifier for a study.</TranslatedText>
                </Description>
            </def:CommentDef>
            <def:CommentDef OID="COM.IT.EX.DOMAIN" xmlns:def="http://www.cdisc.org/ns/def/v2.1">
                <Description>
                    <TranslatedText>Two-character abbreviation for the domain.</TranslatedText>
                </Description>
            </def:CommentDef>
            <def:CommentDef OID="COM.IT.EX.USUBJID" xmlns:def="http://www.cdisc.org/ns/def/v2.1">
                <Description>
                    <TranslatedText>Identifier used to uniquely identify a subject across all studies for all applications or submissions involving the product.</TranslatedText>
                </Description>
            </def:CommentDef>
            <def:CommentDef OID="COM.IT.EX.EXSEQ" xmlns:def="http://www.cdisc.org/ns/def/v2.1">
                <Description>
                    <TranslatedText>Sequence Number given to ensure uniqueness of subject records within a domain. May be any valid number.</TranslatedText>
                </Description>
            </def:CommentDef>
            <def:CommentDef OID="COM.IT.EX.EXGRPID" xmlns:def="http://www.cdisc.org/ns/def/v2.1">
                <Description>
                    <TranslatedText>Used to tie together a block of related records in a single domain for a subject.</TranslatedText>
                </Description>
            </def:CommentDef>
            <def:CommentDef OID="COM.IT.EX.EXREFID" xmlns:def="http://www.cdisc.org/ns/def/v2.1">
                <Description>
                    <TranslatedText>Internal or external identifier (e.g., kit number, bottle label, vial identifier).</TranslatedText>
                </Description>
            </def:CommentDef>
            <def:CommentDef OID="COM.IT.EX.EXSPID" xmlns:def="http://www.cdisc.org/ns/def/v2.1">
                <Description>
                    <TranslatedText>Sponsor-defined reference number. Perhaps pre-printed on the CRF as an explicit line identifier or defined in the sponsor's operational database. Example: Line number on a CRF Page.</TranslatedText>
                </Description>
            </def:CommentDef>
            <def:CommentDef OID="COM.IT.EX.EXLNKID" xmlns:def="http://www.cdisc.org/ns/def/v2.1">
                <Description>
                    <TranslatedText>Identifier used to link related records across domains.</TranslatedText>
                </Description>
            </def:CommentDef>
            <def:CommentDef OID="COM.IT.EX.EXLNKGRP" xmlns:def="http://www.cdisc.org/ns/def/v2.1">
                <Description>
                    <TranslatedText>Identifier used to link related, grouped records across domains.</TranslatedText>
                </Description>
            </def:CommentDef>
            <def:CommentDef OID="COM.IT.EX.EXTRT" xmlns:def="http://www.cdisc.org/ns/def/v2.1">
                <Description>
                    <TranslatedText>Name of the protocol-specified study treatment given during the dosing period for the observation.</TranslatedText>
                </Description>
            </def:CommentDef>
            <def:CommentDef OID="COM.IT.EX.EXCAT" xmlns:def="http://www.cdisc.org/ns/def/v2.1">
                <Description>
                    <TranslatedText>Used to define a category of EXTRT values.</TranslatedText>
                </Description>
            </def:CommentDef>
            <def:CommentDef OID="COM.IT.EX.EXSCAT" xmlns:def="http://www.cdisc.org/ns/def/v2.1">
                <Description>
                    <TranslatedText>A further categorization of EXCAT values.</TranslatedText>
                </Description>
            </def:CommentDef>
            <def:CommentDef OID="COM.IT.EX.EXDOSE" xmlns:def="http://www.cdisc.org/ns/def/v2.1">
                <Description>
                    <TranslatedText>Amount of EXTRT when numeric. Not populated when EXDOSTXT is populated.</TranslatedText>
                </Description>
            </def:CommentDef>
            <def:CommentDef OID="COM.IT.EX.EXDOSTXT" xmlns:def="http://www.cdisc.org/ns/def/v2.1">
                <Description>
                    <TranslatedText>Amount of EXTRT when non-numeric. Dosing amounts or a range of dosing information collected in text form. Example: 200-400. Not populated when EXDOSE is populated.</TranslatedText>
                </Description>
            </def:CommentDef>
            <def:CommentDef OID="COM.IT.EX.EXDOSU" xmlns:def="http://www.cdisc.org/ns/def/v2.1">
                <Description>
                    <TranslatedText>Units for EXDOSE, EXDOSTOT, or EXDOSTXT representing protocol-specified values. Examples: &quot;ng&quot;, &quot;mg&quot;, &quot;mg/kg&quot;, &quot;mg/m2&quot;.</TranslatedText>
                </Description>
            </def:CommentDef>
            <def:CommentDef OID="COM.IT.EX.EXDOSFRM" xmlns:def="http://www.cdisc.org/ns/def/v2.1">
                <Description>
                    <TranslatedText>Dose form for EXTRT. Examples: &quot;TABLET&quot;, &quot;LOTION&quot;.</TranslatedText>
                </Description>
            </def:CommentDef>
            <def:CommentDef OID="COM.IT.EX.EXDOSFRQ" xmlns:def="http://www.cdisc.org/ns/def/v2.1">
                <Description>
                    <TranslatedText>Usually expressed as the number of repeated administrations of EXDOSE within a specific time period. Examples: &quot;Q2H&quot;, &quot;QD&quot;, &quot;BID&quot;.</TranslatedText>
                </Description>
            </def:CommentDef>
            <def:CommentDef OID="COM.IT.EX.EXDOSRGM" xmlns:def="http://www.cdisc.org/ns/def/v2.1">
                <Description>
                    <TranslatedText>Text description of the intended schedule or regimen for the Intervention. Example: &quot;TWO WEEKS ON, TWO WEEKS OFF&quot;.</TranslatedText>
                </Description>
            </def:CommentDef>
            <def:CommentDef OID="COM.IT.EX.EXROUTE" xmlns:def="http://www.cdisc.org/ns/def/v2.1">
                <Description>
                    <TranslatedText>Route of administration for the intervention. Examples: &quot;ORAL&quot;, &quot;INTRAVENOUS&quot;.</TranslatedText>
                </Description>
            </def:CommentDef>
            <def:CommentDef OID="COM.IT.EX.EXLOT" xmlns:def="http://www.cdisc.org/ns/def/v2.1">
                <Description>
                    <TranslatedText>Lot number of the intervention product.</TranslatedText>
                </Description>
            </def:CommentDef>
            <def:CommentDef OID="COM.IT.EX.EXLOC" xmlns:def="http://www.cdisc.org/ns/def/v2.1">
                <Description>
                    <TranslatedText>Specifies location of administration. Examples: &quot;ARM&quot;, &quot;LIP&quot;.</TranslatedText>
                </Description>
            </def:CommentDef>
            <def:CommentDef OID="COM.IT.EX.EXLAT" xmlns:def="http://www.cdisc.org/ns/def/v2.1">
                <Description>
                    <TranslatedText>Qualifier for anatomical location further detailing laterality of the intervention administration. Examples: &quot;LEFT&quot;, &quot;RIGHT&quot;.</TranslatedText>
                </Description>
            </def:CommentDef>
            <def:CommentDef OID="COM.IT.EX.EXDIR" xmlns:def="http://www.cdisc.org/ns/def/v2.1">
                <Description>
                    <TranslatedText>Qualifier for anatomical location further detailing directionality. Examples: &quot;ANTERIOR&quot;, &quot;LOWER&quot;, &quot;PROXIMAL&quot;, &quot;UPPER&quot;.</TranslatedText>
                </Description>
            </def:CommentDef>
            <def:CommentDef OID="COM.IT.EX.EXFAST" xmlns:def="http://www.cdisc.org/ns/def/v2.1">
                <Description>
                    <TranslatedText>Indicator used to identify fasting status. Examples: &quot;Y&quot;, &quot;N&quot;.</TranslatedText>
                </Description>
            </def:CommentDef>
            <def:CommentDef OID="COM.IT.EX.EXADJ" xmlns:def="http://www.cdisc.org/ns/def/v2.1">
                <Description>
                    <TranslatedText>Describes reason or explanation of why a dose is adjusted.</TranslatedText>
                </Description>
            </def:CommentDef>
            <def:CommentDef OID="COM.IT.EX.TAETORD" xmlns:def="http://www.cdisc.org/ns/def/v2.1">
                <Description>
                    <TranslatedText>Number that gives the planned order of the Element within the Arm.</TranslatedText>
                </Description>
            </def:CommentDef>
            <def:CommentDef OID="COM.IT.EX.EPOCH" xmlns:def="http://www.cdisc.org/ns/def/v2.1">
                <Description>
                    <TranslatedText>Trial Epoch of the Exposure record. Examples: &quot;RUN-IN&quot;, &quot;TREATMENT&quot;.</TranslatedText>
                </Description>
            </def:CommentDef>
            <def:CommentDef OID="COM.IT.EX.EXSTDTC" xmlns:def="http://www.cdisc.org/ns/def/v2.1">
                <Description>
                    <TranslatedText>The date/time when administration of the treatment indicated by EXTRT and EXDOSE began.</TranslatedText>
                </Description>
            </def:CommentDef>
            <def:CommentDef OID="COM.IT.EX.EXENDTC" xmlns:def="http://www.cdisc.org/ns/def/v2.1">
                <Description>
                    <TranslatedText>The date/time when administration of the treatment indicated by EXTRT and EXDOSE ended. For administrations considered given at a point in time (e.g., oral tablet, pre-filled syringe injection), where only an administration date/time is collected, EXSTDTC should be copied to EXENDTC as the standard representation.</TranslatedText>
                </Description>
            </def:CommentDef>
            <def:CommentDef OID="COM.IT.EX.EXSTDY" xmlns:def="http://www.cdisc.org/ns/def/v2.1">
                <Description>
                    <TranslatedText>Study day of EXSTDTC relative to DM.RFSTDTC.</TranslatedText>
                </Description>
            </def:CommentDef>
            <def:CommentDef OID="COM.IT.EX.EXENDY" xmlns:def="http://www.cdisc.org/ns/def/v2.1">
                <Description>
                    <TranslatedText>Study day of EXENDTC relative to DM.RFSTDTC.</TranslatedText>
                </Description>
            </def:CommentDef>
            <def:CommentDef OID="COM.IT.EX.EXDUR" xmlns:def="http://www.cdisc.org/ns/def/v2.1">
                <Description>
                    <TranslatedText>Collected duration of administration. Used only if collected on the CRF and not derived from start and end date/times.</TranslatedText>
                </Description>
            </def:CommentDef>
            <def:CommentDef OID="COM.IT.EX.EXTPT" xmlns:def="http://www.cdisc.org/ns/def/v2.1">
                <Description>
                    <TranslatedText>1. Text Description of time when administration should occur.
2. This may be represented as an elapsed time relative to a fixed reference point, such as time of last dose. See EXTPTNUM and EXTPTREF.</TranslatedText>
                </Description>
            </def:CommentDef>
            <def:CommentDef OID="COM.IT.EX.EXTPTNUM" xmlns:def="http://www.cdisc.org/ns/def/v2.1">
                <Description>
                    <TranslatedText>Numerical version of EXTPT to aid in sorting.</TranslatedText>
                </Description>
            </def:CommentDef>
            <def:CommentDef OID="COM.IT.EX.EXELTM" xmlns:def="http://www.cdisc.org/ns/def/v2.1">
                <Description>
                    <TranslatedText>Planned elapsed time relative to the planned fixed reference (EXTPTREF). This variable is useful where there are repetitive measures. Not a clock time.</TranslatedText>
                </Description>
            </def:CommentDef>
            <def:CommentDef OID="COM.IT.EX.EXTPTREF" xmlns:def="http://www.cdisc.org/ns/def/v2.1">
                <Description>
                    <TranslatedText>Name of the fixed reference point referred to by EXELTM, EXTPTNUM, and EXTPT. Examples: PREVIOUS DOSE, PREVIOUS MEAL.</TranslatedText>
                </Description>
            </def:CommentDef>
            <def:CommentDef OID="COM.IT.EX.EXRFTDTC" xmlns:def="http://www.cdisc.org/ns/def/v2.1">
                <Description>
                    <TranslatedText>Date/time for a fixed reference time point defined by EXTPTREF.</TranslatedText>
                </Description>
            </def:CommentDef>
            <def:CommentDef OID="COM.IT.AE.STUDYID" xmlns:def="http://www.cdisc.org/ns/def/v2.1">
                <Description>
                    <TranslatedText>Unique identifier for a study.</TranslatedText>
                </Description>
            </def:CommentDef>
            <def:CommentDef OID="COM.IT.AE.DOMAIN" xmlns:def="http://www.cdisc.org/ns/def/v2.1">
                <Description>
                    <TranslatedText>Two-character abbreviation for the domain.</TranslatedText>
                </Description>
            </def:CommentDef>
            <def:CommentDef OID="COM.IT.AE.USUBJID" xmlns:def="http://www.cdisc.org/ns/def/v2.1">
                <Description>
                    <TranslatedText>Identifier used to uniquely identify a subject across all studies for all applications or submissions involving the product.</TranslatedText>
                </Description>
            </def:CommentDef>
            <def:CommentDef OID="COM.IT.AE.AESEQ" xmlns:def="http://www.cdisc.org/ns/def/v2.1">
                <Description>
                    <TranslatedText>Sequence number given to ensure uniqueness of subject records within a domain. May be any valid number.</TranslatedText>
                </Description>
            </def:CommentDef>
            <def:CommentDef OID="COM.IT.AE.AEGRPID" xmlns:def="http://www.cdisc.org/ns/def/v2.1">
                <Description>
                    <TranslatedText>Used to tie together a block of related records in a single domain for a subject.</TranslatedText>
                </Description>
            </def:CommentDef>
            <def:CommentDef OID="COM.IT.AE.AEREFID" xmlns:def="http://www.cdisc.org/ns/def/v2.1">
                <Description>
                    <TranslatedText>Internal or external identifier such as a serial number on an SAE reporting form.</TranslatedText>
                </Description>
            </def:CommentDef>
            <def:CommentDef OID="COM.IT.AE.AESPID" xmlns:def="http://www.cdisc.org/ns/def/v2.1">
                <Description>
                    <TranslatedText>Sponsor-defined identifier. It may be preprinted on the CRF as an explicit line identifier or defined in the sponsor's operational database. Example: Line number on an Adverse Events page.</TranslatedText>
                </Description>
            </def:CommentDef>
            <def:CommentDef OID="COM.IT.AE.AETERM" xmlns:def="http://www.cdisc.org/ns/def/v2.1">
                <Description>
                    <TranslatedText>Verbatim name of the event.</TranslatedText>
                </Description>
            </def:CommentDef>
            <def:CommentDef OID="COM.IT.AE.AEMODIFY" xmlns:def="http://www.cdisc.org/ns/def/v2.1">
                <Description>
                    <TranslatedText>If AETERM is modified to facilitate coding, then AEMODIFY will contain the modified text.</TranslatedText>
                </Description>
            </def:CommentDef>
            <def:CommentDef OID="COM.IT.AE.AELLT" xmlns:def="http://www.cdisc.org/ns/def/v2.1">
                <Description>
                    <TranslatedText>Dictionary-derived text description of the Lowest Level Term.</TranslatedText>
                </Description>
            </def:CommentDef>
            <def:CommentDef OID="COM.IT.AE.AELLTCD" xmlns:def="http://www.cdisc.org/ns/def/v2.1">
                <Description>
                    <TranslatedText>Dictionary-derived code for the Lowest Level Term.</TranslatedText>
                </Description>
            </def:CommentDef>
            <def:CommentDef OID="COM.IT.AE.AEDECOD" xmlns:def="http://www.cdisc.org/ns/def/v2.1">
                <Description>
                    <TranslatedText>Dictionary-derived text description of AETERM or AEMODIFY. Equivalent to the Preferred Term (PT in MedDRA). The sponsor is expected to provide the dictionary name and version used to map the terms utilizing the external codelist element in the Define-XML document.</TranslatedText>
                </Description>
            </def:CommentDef>
            <def:CommentDef OID="COM.IT.AE.AEPTCD" xmlns:def="http://www.cdisc.org/ns/def/v2.1">
                <Description>
                    <TranslatedText>Dictionary-derived code for the Preferred Term.</TranslatedText>
                </Description>
            </def:CommentDef>
            <def:CommentDef OID="COM.IT.AE.AEHLT" xmlns:def="http://www.cdisc.org/ns/def/v2.1">
                <Description>
                    <TranslatedText>Dictionary-derived text description of the High Level Term for the primary System Organ Class.</TranslatedText>
                </Description>
            </def:CommentDef>
            <def:CommentDef OID="COM.IT.AE.AEHLTCD" xmlns:def="http://www.cdisc.org/ns/def/v2.1">
                <Description>
                    <TranslatedText>Dictionary-derived code for the High Level Term for the primary System Organ Class.</TranslatedText>
                </Description>
            </def:CommentDef>
            <def:CommentDef OID="COM.IT.AE.AEHLGT" xmlns:def="http://www.cdisc.org/ns/def/v2.1">
                <Description>
                    <TranslatedText>Dictionary-derived text description of the High Level Group Term for the primary System Organ Class.</TranslatedText>
                </Description>
            </def:CommentDef>
            <def:CommentDef OID="COM.IT.AE.AEHLGTCD" xmlns:def="http://www.cdisc.org/ns/def/v2.1">
                <Description>
                    <TranslatedText>Dictionary-derived code for the High Level Group Term for the primary System Organ Class.</TranslatedText>
                </Description>
            </def:CommentDef>
            <def:CommentDef OID="COM.IT.AE.AECAT" xmlns:def="http://www.cdisc.org/ns/def/v2.1">
                <Description>
                    <TranslatedText>Used to define a category of related records. Example: &quot;BLEEDING&quot;, &quot;NEUROPSYCHIATRIC&quot;.</TranslatedText>
                </Description>
            </def:CommentDef>
            <def:CommentDef OID="COM.IT.AE.AESCAT" xmlns:def="http://www.cdisc.org/ns/def/v2.1">
                <Description>
                    <TranslatedText>A further categorization of adverse event. Example: &quot;NEUROLOGIC&quot;.</TranslatedText>
                </Description>
            </def:CommentDef>
            <def:CommentDef OID="COM.IT.AE.AEPRESP" xmlns:def="http://www.cdisc.org/ns/def/v2.1">
                <Description>
                    <TranslatedText>A value of &quot;Y&quot; indicates that this adverse event was pre-specified on the CRF. Values are null for spontaneously reported events (i.e., those collected as free-text verbatim terms).</TranslatedText>
                </Description>
            </def:CommentDef>
            <def:CommentDef OID="COM.IT.AE.AEBODSYS" xmlns:def="http://www.cdisc.org/ns/def/v2.1">
                <Description>
                    <TranslatedText>Dictionary derived. Body system or organ class used by the sponsor from the coding dictionary (e.g., MedDRA). When using a multi-axial dictionary such as MedDRA, this should contain the SOC used for the sponsor's analyses and summary tables, which may not necessarily be the primary SOC.</TranslatedText>
                </Description>
            </def:CommentDef>
            <def:CommentDef OID="COM.IT.AE.AEBDSYCD" xmlns:def="http://www.cdisc.org/ns/def/v2.1">
                <Description>
                    <TranslatedText>Dictionary derived. Code for the body system or organ class used by the sponsor. When using a multi-axial dictionary such as MedDRA, this should contain the SOC used for the sponsor's analyses and summary tables, which may not necessarily be the primary SOC.</TranslatedText>
                </Description>
            </def:CommentDef>
            <def:CommentDef OID="COM.IT.AE.AESOC" xmlns:def="http://www.cdisc.org/ns/def/v2.1">
                <Description>
                    <TranslatedText>Dictionary-derived text description of the primary System Organ Class. Will be the same as AEBODSYS if the primary SOC was used for analysis.</TranslatedText>
                </Description>
            </def:CommentDef>
            <def:CommentDef OID="COM.IT.AE.AESOCCD" xmlns:def="http://www.cdisc.org/ns/def/v2.1">
                <Description>
                    <TranslatedText>Dictionary-derived code for the primary System Organ Class. Will be the same as AEBDSYCD if the primary SOC was used for analysis.</TranslatedText>
                </Description>
            </def:CommentDef>
            <def:CommentDef OID="COM.IT.AE.AELOC" xmlns:def="http://www.cdisc.org/ns/def/v2.1">
                <Description>
                    <TranslatedText>Describes anatomical location relevant for the event (e.g., &quot;ARM&quot; for skin rash).</TranslatedText>
                </Description>
            </def:CommentDef>
            <def:CommentDef OID="COM.IT.AE.AESEV" xmlns:def="http://www.cdisc.org/ns/def/v2.1">
                <Description>
                    <TranslatedText>The severity or intensity of the event. Examples: &quot;MILD&quot;, &quot;MODERATE&quot;, &quot;SEVERE&quot;.</TranslatedText>
                </Description>
            </def:CommentDef>
            <def:CommentDef OID="COM.IT.AE.AESER" xmlns:def="http://www.cdisc.org/ns/def/v2.1">
                <Description>
                    <TranslatedText>Is this a serious event? Valid values are &quot;Y&quot; and &quot;N&quot;.</TranslatedText>
                </Description>
            </def:CommentDef>
            <def:CommentDef OID="COM.IT.AE.AEACN" xmlns:def="http://www.cdisc.org/ns/def/v2.1">
                <Description>
                    <TranslatedText>Describes changes to the study treatment as a result of the event. AEACN is specifically for the relationship to study treatment. AEACNOTH is for actions unrelated to dose adjustments of study treatment. Examples of AEACN values include ICH E2B values: &quot;DRUG WITHDRAWN&quot;, &quot;DOSE REDUCED&quot;, &quot;DOSE INCREASED&quot;, &quot;DOSE NOT CHANGED&quot;, &quot;UNKNOWN&quot; or &quot;NOT APPLICABLE&quot;.</TranslatedText>
                </Description>
            </def:CommentDef>
            <def:CommentDef OID="COM.IT.AE.AEACNOTH" xmlns:def="http://www.cdisc.org/ns/def/v2.1">
                <Description>
                    <TranslatedText>Describes other actions taken as a result of the event that are unrelated to dose adjustments of study treatment. Usually reported as free text. Example: &quot;TREATMENT UNBLINDED. PRIMARY CARE PHYSICIAN NOTIFIED&quot;.</TranslatedText>
                </Description>
            </def:CommentDef>
            <def:CommentDef OID="COM.IT.AE.AEREL" xmlns:def="http://www.cdisc.org/ns/def/v2.1">
                <Description>
                    <TranslatedText>Records the investigator's opinion as to the causality of the event to the treatment. ICH E2A and E2B examples include &quot;NOT RELATED&quot;, &quot;UNLIKELY RELATED&quot;, &quot;POSSIBLY RELATED&quot;, &quot;RELATED&quot;. Controlled Terminology may be defined in the future. Check with regulatory authority for population of this variable.</TranslatedText>
                </Description>
            </def:CommentDef>
            <def:CommentDef OID="COM.IT.AE.AERELNST" xmlns:def="http://www.cdisc.org/ns/def/v2.1">
                <Description>
